item1,item,factor,step,image1,image2,corrAns,main_trials_1.thisTrialN,main_trials_1.thisN,main_trials_1.thisIndex,image_4.started,image_5.started,sound_2.started,key_resp_4.started,key_resp_4.keys,key_resp_4.rt,participant,gender,age,date,expName,psychopyVersion,frameRate,rep,tone
sound,kan,peak,4,image1/kan_taste.png,image2/kan_liver.png,1,7,7,3,160.6166652,160.6166652,160.9410409,160.9407925,k,2.707036792,F02,Female,25,2023-02-07_14h42.36.892,id,2022.2.3,59.94890867,1,0
sound,pam,peak,1,image1/pam_night.png,image2/pam_chestnut.png,1,9,9,5,167.5948656,167.5948656,167.9248607,167.9249102,k,2.656712625,F02,Female,25,2023-02-07_14h42.36.892,id,2022.2.3,59.94890867,1,0
sound,pal,peak,3,image1/pal_foot.png,image2/pal_shade.png,1,12,12,12,177.7451996,177.7451996,178.0915294,178.0914738,k,3.012830542,F02,Female,25,2023-02-07_14h42.36.892,id,2022.2.3,59.94890867,1,0
sound,pam,peak,5,image1/pam_night.png,image2/pam_chestnut.png,1,18,18,9,201.2447662,201.2447662,201.5916709,201.5916685,k,3.029969,F02,Female,25,2023-02-07_14h42.36.892,id,2022.2.3,59.94890867,1,0
sound,kan,peak,3,image1/kan_taste.png,image2/kan_liver.png,1,19,19,2,204.8150565,204.8150565,205.1416129,205.1417476,k,2.811845624,F02,Female,25,2023-02-07_14h42.36.892,id,2022.2.3,59.94890867,1,0
sound,pal,peak,4,image1/pal_foot.png,image2/pal_shade.png,1,23,23,13,218.5358676,218.5358676,218.8910996,218.8918244,k,3.202196667,F02,Female,25,2023-02-07_14h42.36.892,id,2022.2.3,59.94890867,1,0
sound,pam,peak,4,image1/pam_night.png,image2/pam_chestnut.png,1,45,45,8,301.1928945,301.1928945,301.5415541,301.5422222,k,2.741891792,F02,Female,25,2023-02-07_14h42.36.892,id,2022.2.3,59.94890867,1,0
sound,kan,peak,2,image1/kan_taste.png,image2/kan_liver.png,1,47,47,1,307.6207488,307.6207488,307.9589532,307.9588611,k,2.431010708,F02,Female,25,2023-02-07_14h42.36.892,id,2022.2.3,59.94890867,1,0
sound,pam,peak,3,image1/pam_night.png,image2/pam_chestnut.png,1,48,48,7,310.5594029,310.5594029,310.9087585,310.9089399,k,2.577794875,F02,Female,25,2023-02-07_14h42.36.892,id,2022.2.3,59.94890867,1,0
sound,pal,peak,1,image1/pal_foot.png,image2/pal_shade.png,1,50,50,10,317.0502456,317.0502456,317.4087908,317.4087728,k,3.04488175,F02,Female,25,2023-02-07_14h42.36.892,id,2022.2.3,59.94890867,1,0
sound,pam,peak,2,image1/pam_night.png,image2/pam_chestnut.png,1,57,57,6,341.5772059,341.5772059,341.9087432,341.9089379,k,2.558086416,F02,Female,25,2023-02-07_14h42.36.892,id,2022.2.3,59.94890867,1,0
sound,kan,peak,5,image1/kan_taste.png,image2/kan_liver.png,1,62,62,4,357.9480513,357.9480513,358.2748915,358.275103,k,2.472434416,F02,Female,25,2023-02-07_14h42.36.892,id,2022.2.3,59.94890867,1,0
sound,kan,peak,1,image1/kan_taste.png,image2/kan_liver.png,1,67,67,0,373.7301401,373.7301401,374.0589706,374.0589604,k,2.765042583,F02,Female,25,2023-02-07_14h42.36.892,id,2022.2.3,59.94890867,1,0
sound,pal,peak,2,image1/pal_foot.png,image2/pal_shade.png,1,69,69,11,380.0513753,380.0513753,380.4085832,380.4092664,k,2.466657583,F02,Female,25,2023-02-07_14h42.36.892,id,2022.2.3,59.94890867,1,0
sound,pal,peak,5,image1/pal_foot.png,image2/pal_shade.png,1,72,72,14,389.4279563,389.4279563,389.7924765,389.7925487,k,2.960206291,F02,Female,25,2023-02-07_14h42.36.892,id,2022.2.3,59.94890867,1,0
sound,pal,peak,4,image1/pal_foot.png,image2/pal_shade.png,1,3,3,13,439.1517012,439.1517012,439.4926751,439.4927713,d,2.702147541,F02,Female,25,2023-02-07_14h42.36.892,id,2022.2.3,59.94890867,2,1
sound,kan,peak,1,image1/kan_taste.png,image2/kan_liver.png,1,5,5,0,447.7664396,447.7664396,448.0927433,448.0928186,k,2.649415917,F02,Female,25,2023-02-07_14h42.36.892,id,2022.2.3,59.94890867,2,0
sound,pal,peak,2,image1/pal_foot.png,image2/pal_shade.png,1,13,13,11,474.5193622,474.5193622,474.8761238,474.8763687,k,2.984940875,F02,Female,25,2023-02-07_14h42.36.892,id,2022.2.3,59.94890867,2,0
sound,pam,peak,3,image1/pam_night.png,image2/pam_chestnut.png,1,15,15,7,480.9277743,480.9277743,481.2758687,481.2763293,k,2.496884916,F02,Female,25,2023-02-07_14h42.36.892,id,2022.2.3,59.94890867,2,0
sound,kan,peak,2,image1/kan_taste.png,image2/kan_liver.png,1,20,20,1,496.3126292,496.3126292,496.6429911,496.6428135,k,2.564909333,F02,Female,25,2023-02-07_14h42.36.892,id,2022.2.3,59.94890867,2,0
sound,kan,peak,4,image1/kan_taste.png,image2/kan_liver.png,1,32,32,3,536.1505348,536.1505348,536.476125,536.4759455,k,2.5896405,F02,Female,25,2023-02-07_14h42.36.892,id,2022.2.3,59.94890867,2,0
sound,pam,peak,2,image1/pam_night.png,image2/pam_chestnut.png,1,37,37,6,551.8144092,551.8144092,552.143063,552.1431685,k,2.757098625,F02,Female,25,2023-02-07_14h42.36.892,id,2022.2.3,59.94890867,2,0
sound,pal,peak,3,image1/pal_foot.png,image2/pal_shade.png,1,41,41,12,564.9096388,564.9096388,565.2764694,565.2766197,k,2.611262333,F02,Female,25,2023-02-07_14h42.36.892,id,2022.2.3,59.94890867,2,0
sound,kan,peak,3,image1/kan_taste.png,image2/kan_liver.png,1,45,45,2,577.3093706,577.3093706,577.6432375,577.6433274,k,2.582133416,F02,Female,25,2023-02-07_14h42.36.892,id,2022.2.3,59.94890867,2,0
sound,pam,peak,1,image1/pam_night.png,image2/pam_chestnut.png,1,51,51,5,596.42763,596.42763,596.7765939,596.7766381,k,2.901216125,F02,Female,25,2023-02-07_14h42.36.892,id,2022.2.3,59.94890867,2,0
sound,kan,peak,5,image1/kan_taste.png,image2/kan_liver.png,1,53,53,4,603.0005637,603.0005637,603.3098468,603.3101101,k,2.688588,F02,Female,25,2023-02-07_14h42.36.892,id,2022.2.3,59.94890867,2,0
sound,pal,peak,1,image1/pal_foot.png,image2/pal_shade.png,1,57,57,10,616.3133512,616.3133512,616.6601772,616.6600395,k,2.736333166,F02,Female,25,2023-02-07_14h42.36.892,id,2022.2.3,59.94890867,2,0
sound,pam,peak,5,image1/pam_night.png,image2/pam_chestnut.png,1,61,61,9,629.3442417,629.3442417,629.6933467,629.6934913,k,2.59953075,F02,Female,25,2023-02-07_14h42.36.892,id,2022.2.3,59.94890867,2,0
sound,pal,peak,5,image1/pal_foot.png,image2/pal_shade.png,1,67,67,14,647.9846103,647.9846103,648.3268492,648.3267717,k,2.375851249,F02,Female,25,2023-02-07_14h42.36.892,id,2022.2.3,59.94890867,2,0
sound,pam,peak,4,image1/pam_night.png,image2/pam_chestnut.png,1,69,69,8,653.8528037,653.8528037,654.2103889,654.2104078,k,2.387898666,F02,Female,25,2023-02-07_14h42.36.892,id,2022.2.3,59.94890867,2,0
sound,kan,peak,3,image1/kan_taste.png,image2/kan_liver.png,1,1,1,2,677.9398965,677.9398965,678.2603337,678.2606427,k,2.492134958,F02,Female,25,2023-02-07_14h42.36.892,id,2022.2.3,59.94890867,3,0
sound,pal,peak,2,image1/pal_foot.png,image2/pal_shade.png,1,6,6,11,693.3016485,693.3016485,693.6437687,693.6437679,k,2.519556333,F02,Female,25,2023-02-07_14h42.36.892,id,2022.2.3,59.94890867,3,0
sound,pam,peak,4,image1/pam_night.png,image2/pam_chestnut.png,1,7,7,8,696.3480893,696.3480893,696.6936663,696.6936433,k,2.505205249,F02,Female,25,2023-02-07_14h42.36.892,id,2022.2.3,59.94890867,3,0
sound,kan,peak,4,image1/kan_taste.png,image2/kan_liver.png,1,8,8,3,699.4001968,699.4001968,699.7270816,699.727176,k,2.507897,F02,Female,25,2023-02-07_14h42.36.892,id,2022.2.3,59.94890867,3,0
sound,kan,peak,2,image1/kan_taste.png,image2/kan_liver.png,1,11,11,1,708.7983608,708.7983608,709.1265136,709.1271393,k,2.782729041,F02,Female,25,2023-02-07_14h42.36.892,id,2022.2.3,59.94890867,3,0
sound,pal,peak,1,image1/pal_foot.png,image2/pal_shade.png,1,17,17,10,731.1290962,731.1290962,731.4770914,731.4772955,k,2.628084333,F02,Female,25,2023-02-07_14h42.36.892,id,2022.2.3,59.94890867,3,0
sound,pal,peak,3,image1/pal_foot.png,image2/pal_shade.png,1,19,19,12,737.4679178,737.4679178,737.8107353,737.8105669,k,2.546607124,F02,Female,25,2023-02-07_14h42.36.892,id,2022.2.3,59.94890867,3,0
sound,pam,peak,2,image1/pam_night.png,image2/pam_chestnut.png,1,32,32,6,780.328007,780.328007,780.677367,780.6775522,k,2.590971333,F02,Female,25,2023-02-07_14h42.36.892,id,2022.2.3,59.94890867,3,0
sound,pam,peak,1,image1/pam_night.png,image2/pam_chestnut.png,1,37,37,5,796.018766,796.018766,796.3609585,796.3607622,k,2.735258,F02,Female,25,2023-02-07_14h42.36.892,id,2022.2.3,59.94890867,3,0
sound,pam,peak,5,image1/pam_night.png,image2/pam_chestnut.png,1,38,38,9,799.2688137,799.2688137,799.6275352,799.6274743,k,2.417345,F02,Female,25,2023-02-07_14h42.36.892,id,2022.2.3,59.94890867,3,0
sound,kan,peak,5,image1/kan_taste.png,image2/kan_liver.png,1,39,39,4,802.2496455,802.2496455,802.5766487,802.5773895,k,2.78634175,F02,Female,25,2023-02-07_14h42.36.892,id,2022.2.3,59.94890867,3,0
sound,pal,peak,5,image1/pal_foot.png,image2/pal_shade.png,1,45,45,14,820.8711123,820.8711123,821.2270711,821.2277472,k,2.504588542,F02,Female,25,2023-02-07_14h42.36.892,id,2022.2.3,59.94890867,3,0
sound,kan,peak,1,image1/kan_taste.png,image2/kan_liver.png,1,47,47,0,827.0646564,827.0646564,827.3934563,827.3943534,k,2.569745375,F02,Female,25,2023-02-07_14h42.36.892,id,2022.2.3,59.94890867,3,0
sound,pam,peak,3,image1/pam_night.png,image2/pam_chestnut.png,1,59,59,7,865.6108177,865.6108177,865.9610484,865.9610875,d,2.587959624,F02,Female,25,2023-02-07_14h42.36.892,id,2022.2.3,59.94890867,3,1
sound,pal,peak,4,image1/pal_foot.png,image2/pal_shade.png,1,64,64,13,882.8367554,882.8367554,883.1942115,883.1945558,k,2.899035542,F02,Female,25,2023-02-07_14h42.36.892,id,2022.2.3,59.94890867,3,0
sound,pal,peak,2,image1/pal_foot.png,image2/pal_shade.png,1,9,9,11,979.3586068,979.3586068,979.7115766,979.7115168,k,2.587641708,F02,Female,25,2023-02-07_14h42.36.892,id,2022.2.3,59.94890867,4,0
sound,kan,peak,2,image1/kan_taste.png,image2/kan_liver.png,1,10,10,1,982.495654,982.495654,982.8280224,982.8280521,k,2.5931575,F02,Female,25,2023-02-07_14h42.36.892,id,2022.2.3,59.94890867,4,0
sound,kan,peak,4,image1/kan_taste.png,image2/kan_liver.png,1,14,14,3,995.1122085,995.1122085,995.4444132,995.4449258,k,2.589834333,F02,Female,25,2023-02-07_14h42.36.892,id,2022.2.3,59.94890867,4,0
sound,kan,peak,5,image1/kan_taste.png,image2/kan_liver.png,1,15,15,4,998.224182,998.224182,998.5610712,998.5615957,k,2.3051025,F02,Female,25,2023-02-07_14h42.36.892,id,2022.2.3,59.94890867,4,0
sound,pam,peak,2,image1/pam_night.png,image2/pam_chestnut.png,1,16,16,6,1001.046113,1001.046113,1001.378385,1001.378489,k,2.561228249,F02,Female,25,2023-02-07_14h42.36.892,id,2022.2.3,59.94890867,4,0
sound,pam,peak,3,image1/pam_night.png,image2/pam_chestnut.png,1,18,18,7,1007.096462,1007.096462,1007.428275,1007.428292,k,2.528261666,F02,Female,25,2023-02-07_14h42.36.892,id,2022.2.3,59.94890867,4,0
sound,pal,peak,4,image1/pal_foot.png,image2/pal_shade.png,1,25,25,13,1027.895008,1027.895008,1028.244694,1028.245303,k,2.919250417,F02,Female,25,2023-02-07_14h42.36.892,id,2022.2.3,59.94890867,4,0
sound,pam,peak,5,image1/pam_night.png,image2/pam_chestnut.png,1,30,30,9,1045.631398,1045.631398,1045.978433,1045.978439,k,2.556373624,F02,Female,25,2023-02-07_14h42.36.892,id,2022.2.3,59.94890867,4,0
sound,kan,peak,1,image1/kan_taste.png,image2/kan_liver.png,1,31,31,0,1048.732717,1048.732717,1049.061393,1049.061903,k,2.718342791,F02,Female,25,2023-02-07_14h42.36.892,id,2022.2.3,59.94890867,4,0
sound,pal,peak,5,image1/pal_foot.png,image2/pal_shade.png,1,42,42,14,1083.186807,1083.186807,1083.528717,1083.528781,k,2.690583208,F02,Female,25,2023-02-07_14h42.36.892,id,2022.2.3,59.94890867,4,0
sound,pal,peak,1,image1/pal_foot.png,image2/pal_shade.png,1,44,44,10,1089.602724,1089.602724,1089.945478,1089.945501,k,2.958654542,F02,Female,25,2023-02-07_14h42.36.892,id,2022.2.3,59.94890867,4,0
sound,pam,peak,4,image1/pam_night.png,image2/pam_chestnut.png,1,46,46,8,1096.113824,1096.113824,1096.462186,1096.46208,k,2.429882291,F02,Female,25,2023-02-07_14h42.36.892,id,2022.2.3,59.94890867,4,0
sound,pam,peak,1,image1/pam_night.png,image2/pam_chestnut.png,1,55,55,5,1124.696992,1124.696992,1125.044896,1125.04549,k,2.649601499,F02,Female,25,2023-02-07_14h42.36.892,id,2022.2.3,59.94890867,4,0
sound,pal,peak,3,image1/pal_foot.png,image2/pal_shade.png,1,63,63,12,1152.810689,1152.810689,1153.1623,1153.162386,k,2.558718791,F02,Female,25,2023-02-07_14h42.36.892,id,2022.2.3,59.94890867,4,0
sound,kan,peak,3,image1/kan_taste.png,image2/kan_liver.png,1,68,68,2,1168.250623,1168.250623,1168.579242,1168.579283,k,2.459402458,F02,Female,25,2023-02-07_14h42.36.892,id,2022.2.3,59.94890867,4,0
sound,kan,peak,4,image1/kan_taste.png,image2/kan_liver.png,1,2,2,3,418.487974,418.487974,418.8073399,418.8073495,k,3.011328374,F03,Female,25,2023-02-07_17h05.03.908,id,2022.2.3,59.39484069,1,0
sound,kan,peak,5,image1/kan_taste.png,image2/kan_liver.png,1,3,3,4,422.0022605,422.0022605,422.3242207,422.324304,k,2.958214333,F03,Female,25,2023-02-07_17h05.03.908,id,2022.2.3,59.39484069,1,0
sound,pam,peak,4,image1/pam_night.png,image2/pam_chestnut.png,1,7,7,8,443.3263382,443.3263382,443.6725099,443.6727211,k,3.418999083,F03,Female,25,2023-02-07_17h05.03.908,id,2022.2.3,59.39484069,1,0
sound,kan,peak,1,image1/kan_taste.png,image2/kan_liver.png,1,13,13,0,465.3919912,465.3919912,465.7076866,465.7076828,k,3.211550917,F03,Female,25,2023-02-07_17h05.03.908,id,2022.2.3,59.39484069,1,0
sound,pam,peak,3,image1/pam_night.png,image2/pam_chestnut.png,1,17,17,7,479.8947382,479.8947382,480.2242346,480.2229616,k,3.773014917,F03,Female,25,2023-02-07_17h05.03.908,id,2022.2.3,59.39484069,1,0
sound,kan,peak,3,image1/kan_taste.png,image2/kan_liver.png,1,24,24,2,512.5219177,512.5219177,512.8577527,512.8562813,d,3.903066667,F03,Female,25,2023-02-07_17h05.03.908,id,2022.2.3,59.39484069,1,1
sound,pam,peak,5,image1/pam_night.png,image2/pam_chestnut.png,1,33,33,9,545.4753075,545.4753075,545.8228994,545.8236062,d,2.486257458,F03,Female,25,2023-02-07_17h05.03.908,id,2022.2.3,59.39484069,1,1
sound,pam,peak,2,image1/pam_night.png,image2/pam_chestnut.png,1,36,36,6,556.5588141,556.5588141,556.8912365,556.8898735,k,4.686635041,F03,Female,25,2023-02-07_17h05.03.908,id,2022.2.3,59.39484069,1,0
sound,pal,peak,1,image1/pal_foot.png,image2/pal_shade.png,1,37,37,10,561.7478809,561.7478809,562.106773,562.1081995,k,3.398254666,F03,Female,25,2023-02-07_17h05.03.908,id,2022.2.3,59.39484069,1,0
sound,pal,peak,3,image1/pal_foot.png,image2/pal_shade.png,1,38,38,12,565.6565386,565.6565386,566.0232174,566.0249341,k,2.879497958,F03,Female,25,2023-02-07_17h05.03.908,id,2022.2.3,59.39484069,1,0
sound,pal,peak,5,image1/pal_foot.png,image2/pal_shade.png,1,58,58,14,634.4155156,634.4155156,634.7586906,634.7570673,k,3.109425833,F03,Female,25,2023-02-07_17h05.03.908,id,2022.2.3,59.39484069,1,0
sound,pal,peak,2,image1/pal_foot.png,image2/pal_shade.png,1,59,59,11,638.0228338,638.0228338,638.3901789,638.3916674,k,3.494703791,F03,Female,25,2023-02-07_17h05.03.908,id,2022.2.3,59.39484069,1,0
sound,kan,peak,2,image1/kan_taste.png,image2/kan_liver.png,1,62,62,1,648.1498532,648.1498532,648.4750756,648.4750637,d,4.830978958,F03,Female,25,2023-02-07_17h05.03.908,id,2022.2.3,59.39484069,1,1
sound,pam,peak,1,image1/pam_night.png,image2/pam_chestnut.png,1,66,66,5,663.8770097,663.8770097,664.2237066,664.2239165,k,3.716536583,F03,Female,25,2023-02-07_17h05.03.908,id,2022.2.3,59.39484069,1,0
sound,pal,peak,4,image1/pal_foot.png,image2/pal_shade.png,1,70,70,13,677.901438,677.901438,678.2419504,678.2404345,k,2.815712624,F03,Female,25,2023-02-07_17h05.03.908,id,2022.2.3,59.39484069,1,0
sound,kan,peak,3,image1/kan_taste.png,image2/kan_liver.png,1,0,0,2,724.1739875,724.1739875,724.473939,724.475557,k,3.5641395829999998,F03,Female,25,2023-02-07_17h05.03.908,id,2022.2.3,59.39484069,2,0
sound,pam,peak,3,image1/pam_night.png,image2/pam_chestnut.png,1,3,3,7,737.8448903,737.8448903,738.1754608,738.1740744,k,3.123951792,F03,Female,25,2023-02-07_17h05.03.908,id,2022.2.3,59.39484069,2,0
sound,pal,peak,4,image1/pal_foot.png,image2/pal_shade.png,1,19,19,13,790.1701266,790.1701266,790.508927,790.5074487,k,2.829216833,F03,Female,25,2023-02-07_17h05.03.908,id,2022.2.3,59.39484069,2,0
sound,kan,peak,2,image1/kan_taste.png,image2/kan_liver.png,1,23,23,1,802.5830917,802.5830917,802.9090546,802.9092881,d,4.264261083,F03,Female,25,2023-02-07_17h05.03.908,id,2022.2.3,59.39484069,2,1
sound,pal,peak,5,image1/pal_foot.png,image2/pal_shade.png,1,26,26,14,814.4286385,814.4286385,814.7909935,814.793041,k,2.786239958,F03,Female,25,2023-02-07_17h05.03.908,id,2022.2.3,59.39484069,2,0
sound,pam,peak,4,image1/pam_night.png,image2/pam_chestnut.png,1,37,37,8,850.5272229,850.5272229,850.8593599,850.8577705,k,3.172516958,F03,Female,25,2023-02-07_17h05.03.908,id,2022.2.3,59.39484069,2,0
sound,pam,peak,5,image1/pam_night.png,image2/pam_chestnut.png,1,38,38,9,854.201898,854.201898,854.5579646,854.558214,k,2.55401275,F03,Female,25,2023-02-07_17h05.03.908,id,2022.2.3,59.39484069,2,0
sound,pal,peak,3,image1/pal_foot.png,image2/pal_shade.png,1,39,39,12,857.283508,857.283508,857.6259691,857.6245439,k,3.221614166,F03,Female,25,2023-02-07_17h05.03.908,id,2022.2.3,59.39484069,2,0
sound,pam,peak,1,image1/pam_night.png,image2/pam_chestnut.png,1,41,41,5,865.859713,865.859713,866.1930466,866.1915544,k,4.384760791,F03,Female,25,2023-02-07_17h05.03.908,id,2022.2.3,59.39484069,2,0
sound,kan,peak,4,image1/kan_taste.png,image2/kan_liver.png,1,58,58,3,928.142621,928.142621,928.4596919,928.4599535,k,3.300618499,F03,Female,25,2023-02-07_17h05.03.908,id,2022.2.3,59.39484069,2,0
sound,kan,peak,5,image1/kan_taste.png,image2/kan_liver.png,1,59,59,4,931.9556741,931.9556741,932.2766166,932.276465,k,2.683845833,F03,Female,25,2023-02-07_17h05.03.908,id,2022.2.3,59.39484069,2,0
sound,pal,peak,2,image1/pal_foot.png,image2/pal_shade.png,1,62,62,11,941.3008141,941.3008141,941.6429288,941.6415045,k,3.75931975,F03,Female,25,2023-02-07_17h05.03.908,id,2022.2.3,59.39484069,2,0
sound,pam,peak,2,image1/pam_night.png,image2/pam_chestnut.png,1,65,65,6,951.5975016,951.5975016,951.9413509,951.9419362,k,3.471535833,F03,Female,25,2023-02-07_17h05.03.908,id,2022.2.3,59.39484069,2,0
sound,pal,peak,1,image1/pal_foot.png,image2/pal_shade.png,1,66,66,10,955.5847309,955.5847309,955.9416277,955.9417122,k,3.383810625,F03,Female,25,2023-02-07_17h05.03.908,id,2022.2.3,59.39484069,2,0
sound,kan,peak,1,image1/kan_taste.png,image2/kan_liver.png,1,68,68,0,962.7111562,962.7111562,963.0263171,963.0264807,k,3.742160875,F03,Female,25,2023-02-07_17h05.03.908,id,2022.2.3,59.39484069,2,0
sound,pam,peak,4,image1/pam_night.png,image2/pam_chestnut.png,1,9,9,8,1018.305268,1018.305268,1018.658436,1018.658545,k,2.643259041,F03,Female,25,2023-02-07_17h05.03.908,id,2022.2.3,59.39484069,3,0
sound,pal,peak,2,image1/pal_foot.png,image2/pal_shade.png,1,17,17,11,1043.620148,1043.620148,1043.960156,1043.958648,k,3.329457458,F03,Female,25,2023-02-07_17h05.03.908,id,2022.2.3,59.39484069,3,0
sound,pal,peak,4,image1/pal_foot.png,image2/pal_shade.png,1,20,20,13,1053.717992,1053.717992,1054.060077,1054.058732,k,2.833034208,F03,Female,25,2023-02-07_17h05.03.908,id,2022.2.3,59.39484069,3,0
sound,pal,peak,3,image1/pal_foot.png,image2/pal_shade.png,1,27,27,12,1076.530494,1076.530494,1076.875392,1076.875452,d,2.864757375,F03,Female,25,2023-02-07_17h05.03.908,id,2022.2.3,59.39484069,3,1
sound,kan,peak,3,image1/kan_taste.png,image2/kan_liver.png,1,33,33,2,1097.815314,1097.815314,1098.127109,1098.126976,k,4.277792291,F03,Female,25,2023-02-07_17h05.03.908,id,2022.2.3,59.39484069,3,0
sound,pal,peak,5,image1/pal_foot.png,image2/pal_shade.png,1,36,36,14,1108.648365,1108.648365,1109.009413,1109.010904,k,3.628587458,F03,Female,25,2023-02-07_17h05.03.908,id,2022.2.3,59.39484069,3,0
sound,kan,peak,5,image1/kan_taste.png,image2/kan_liver.png,1,39,39,4,1120.052114,1120.052114,1120.377286,1120.377271,k,3.026875666,F03,Female,25,2023-02-07_17h05.03.908,id,2022.2.3,59.39484069,3,0
sound,kan,peak,1,image1/kan_taste.png,image2/kan_liver.png,1,45,45,0,1139.483233,1139.483233,1139.793848,1139.79396,k,3.410752458,F03,Female,25,2023-02-07_17h05.03.908,id,2022.2.3,59.39484069,3,0
sound,pam,peak,3,image1/pam_night.png,image2/pam_chestnut.png,1,50,50,7,1158.179478,1158.179478,1158.510544,1158.5091,k,3.341815874,F03,Female,25,2023-02-07_17h05.03.908,id,2022.2.3,59.39484069,3,0
sound,pal,peak,1,image1/pal_foot.png,image2/pal_shade.png,1,51,51,10,1162.018971,1162.018971,1162.360626,1162.359234,k,3.254440583,F03,Female,25,2023-02-07_17h05.03.908,id,2022.2.3,59.39484069,3,0
sound,kan,peak,4,image1/kan_taste.png,image2/kan_liver.png,1,55,55,3,1175.748916,1175.748916,1176.077281,1176.076037,k,3.678265125,F03,Female,25,2023-02-07_17h05.03.908,id,2022.2.3,59.39484069,3,0
sound,kan,peak,2,image1/kan_taste.png,image2/kan_liver.png,1,60,60,1,1192.133007,1192.133007,1192.444123,1192.444262,k,6.475470291,F03,Female,25,2023-02-07_17h05.03.908,id,2022.2.3,59.39484069,3,0
sound,pam,peak,5,image1/pam_night.png,image2/pam_chestnut.png,1,63,63,9,1205.929744,1205.929744,1206.260867,1206.259196,k,2.859803416,F03,Female,25,2023-02-07_17h05.03.908,id,2022.2.3,59.39484069,3,0
sound,pam,peak,2,image1/pam_night.png,image2/pam_chestnut.png,1,66,66,6,1215.39553,1215.39553,1215.727576,1215.72596,k,2.632322583,F03,Female,25,2023-02-07_17h05.03.908,id,2022.2.3,59.39484069,3,0
sound,pam,peak,1,image1/pam_night.png,image2/pam_chestnut.png,1,67,67,5,1218.522903,1218.522903,1218.876034,1218.876206,k,2.445033708,F03,Female,25,2023-02-07_17h05.03.908,id,2022.2.3,59.39484069,3,0
sound,pam,peak,5,image1/pam_night.png,image2/pam_chestnut.png,1,1,1,9,1277.989267,1277.989267,1278.327927,1278.326284,d,2.47070325,F03,Female,25,2023-02-07_17h05.03.908,id,2022.2.3,59.39484069,4,1
sound,pam,peak,1,image1/pam_night.png,image2/pam_chestnut.png,1,2,2,5,1280.969612,1280.969612,1281.311162,1281.309743,k,2.721127583,F03,Female,25,2023-02-07_17h05.03.908,id,2022.2.3,59.39484069,4,0
sound,pal,peak,2,image1/pal_foot.png,image2/pal_shade.png,1,3,3,11,1284.202824,1284.202824,1284.544726,1284.543015,k,3.009711041,F03,Female,25,2023-02-07_17h05.03.908,id,2022.2.3,59.39484069,4,0
sound,pam,peak,3,image1/pam_night.png,image2/pam_chestnut.png,1,4,4,7,1287.727799,1287.727799,1288.061666,1288.059983,k,2.635679875,F03,Female,25,2023-02-07_17h05.03.908,id,2022.2.3,59.39484069,4,0
sound,kan,peak,2,image1/kan_taste.png,image2/kan_liver.png,1,18,18,1,1331.566231,1331.566231,1331.878325,1331.87837,k,4.252455208,F03,Female,25,2023-02-07_17h05.03.908,id,2022.2.3,59.39484069,4,0
sound,pam,peak,2,image1/pam_night.png,image2/pam_chestnut.png,1,21,21,6,1342.686336,1342.686336,1343.043453,1343.043541,k,2.746129374,F03,Female,25,2023-02-07_17h05.03.908,id,2022.2.3,59.39484069,4,0
sound,pal,peak,3,image1/pal_foot.png,image2/pal_shade.png,1,29,29,12,1369.632322,1369.632322,1369.976756,1369.976871,k,2.798856167,F03,Female,25,2023-02-07_17h05.03.908,id,2022.2.3,59.39484069,4,0
sound,pam,peak,4,image1/pam_night.png,image2/pam_chestnut.png,1,30,30,8,1372.946465,1372.946465,1373.278039,1373.276801,k,2.967091458,F03,Female,25,2023-02-07_17h05.03.908,id,2022.2.3,59.39484069,4,0
sound,pal,peak,1,image1/pal_foot.png,image2/pal_shade.png,1,34,34,10,1386.63694,1386.63694,1386.978318,1386.976844,k,2.856669374,F03,Female,25,2023-02-07_17h05.03.908,id,2022.2.3,59.39484069,4,0
sound,pal,peak,5,image1/pal_foot.png,image2/pal_shade.png,1,37,37,14,1396.080572,1396.080572,1396.443689,1396.445278,k,2.737049083,F03,Female,25,2023-02-07_17h05.03.908,id,2022.2.3,59.39484069,4,0
sound,kan,peak,5,image1/kan_taste.png,image2/kan_liver.png,1,41,41,4,1409.478917,1409.478917,1409.795179,1409.795188,k,3.363517958,F03,Female,25,2023-02-07_17h05.03.908,id,2022.2.3,59.39484069,4,0
sound,pal,peak,4,image1/pal_foot.png,image2/pal_shade.png,1,47,47,13,1431.934922,1431.934922,1432.27687,1432.276922,k,2.578465874,F03,Female,25,2023-02-07_17h05.03.908,id,2022.2.3,59.39484069,4,0
sound,kan,peak,1,image1/kan_taste.png,image2/kan_liver.png,1,48,48,0,1435.045093,1435.045093,1435.361448,1435.361604,k,3.858195041,F03,Female,25,2023-02-07_17h05.03.908,id,2022.2.3,59.39484069,4,0
sound,kan,peak,3,image1/kan_taste.png,image2/kan_liver.png,1,66,66,2,1497.10186,1497.10186,1497.412055,1497.412136,k,3.884323041,F03,Female,25,2023-02-07_17h05.03.908,id,2022.2.3,59.39484069,4,0
sound,kan,peak,4,image1/kan_taste.png,image2/kan_liver.png,1,73,73,3,1525.501916,1525.501916,1525.81249,1525.812202,k,3.091760416,F03,Female,25,2023-02-07_17h05.03.908,id,2022.2.3,59.39484069,4,0
sound,kan,peak,1,image1/kan_taste.png,image2/kan_liver.png,1,6,6,0,281.2777414,281.2777414,281.5874952,281.5873592,k,3.674524042,F04,Female,25,2023-02-07_14h16.40.665,id,2022.2.3,59.90662032,1,0
sound,pal,peak,2,image1/pal_foot.png,image2/pal_shade.png,1,21,21,11,344.7951392,344.7951392,345.1545175,345.1547938,d,3.792669958,F04,Female,25,2023-02-07_14h16.40.665,id,2022.2.3,59.90662032,1,1
sound,kan,peak,3,image1/kan_taste.png,image2/kan_liver.png,1,22,22,2,349.1398316,349.1398316,349.4713655,349.4713736,d,3.000042042,F04,Female,25,2023-02-07_14h16.40.665,id,2022.2.3,59.90662032,1,1
sound,pal,peak,5,image1/pal_foot.png,image2/pal_shade.png,1,32,32,14,387.8274367,387.8274367,388.1714909,388.1715048,k,3.784516499,F04,Female,25,2023-02-07_14h16.40.665,id,2022.2.3,59.90662032,1,0
sound,pam,peak,2,image1/pam_night.png,image2/pam_chestnut.png,1,36,36,6,402.9394007,402.9394007,403.2876706,403.2878305,k,7.320114916,F04,Female,25,2023-02-07_14h16.40.665,id,2022.2.3,59.90662032,1,0
sound,pal,peak,3,image1/pal_foot.png,image2/pal_shade.png,1,38,38,12,415.2286836,415.2286836,415.5714711,415.5714345,k,4.874852833,F04,Female,25,2023-02-07_14h16.40.665,id,2022.2.3,59.90662032,1,0
sound,kan,peak,4,image1/kan_taste.png,image2/kan_liver.png,1,39,39,3,420.6410093,420.6410093,420.9545472,420.95444,k,4.308246583,F04,Female,25,2023-02-07_14h16.40.665,id,2022.2.3,59.90662032,1,0
sound,pal,peak,1,image1/pal_foot.png,image2/pal_shade.png,1,45,45,10,441.596925,441.596925,441.9550982,441.9548914,k,4.628602083,F04,Female,25,2023-02-07_14h16.40.665,id,2022.2.3,59.90662032,1,0
sound,kan,peak,5,image1/kan_taste.png,image2/kan_liver.png,1,49,49,4,457.7107377,457.7107377,458.0378435,458.0384305,k,3.421873749,F04,Female,25,2023-02-07_14h16.40.665,id,2022.2.3,59.90662032,1,0
sound,pal,peak,4,image1/pal_foot.png,image2/pal_shade.png,1,50,50,13,461.6244069,461.6244069,461.9716189,461.9717457,k,6.150135291,F04,Female,25,2023-02-07_14h16.40.665,id,2022.2.3,59.90662032,1,0
sound,pam,peak,1,image1/pam_night.png,image2/pam_chestnut.png,1,52,52,5,471.5860099,471.5860099,471.9217493,471.9220145,k,3.09680975,F04,Female,25,2023-02-07_14h16.40.665,id,2022.2.3,59.90662032,1,0
sound,pam,peak,4,image1/pam_night.png,image2/pam_chestnut.png,1,53,53,8,475.1800777,475.1800777,475.5218795,475.5218714,k,2.671851292,F04,Female,25,2023-02-07_14h16.40.665,id,2022.2.3,59.90662032,1,0
sound,pam,peak,5,image1/pam_night.png,image2/pam_chestnut.png,1,55,55,9,482.4056452,482.4056452,482.755265,482.7551246,k,3.238433875,F04,Female,25,2023-02-07_14h16.40.665,id,2022.2.3,59.90662032,1,0
sound,pam,peak,3,image1/pam_night.png,image2/pam_chestnut.png,1,59,59,7,496.7636405,496.7636405,497.1219046,497.121909,k,2.986165874,F04,Female,25,2023-02-07_14h16.40.665,id,2022.2.3,59.90662032,1,0
sound,kan,peak,2,image1/kan_taste.png,image2/kan_liver.png,1,74,74,1,576.3116254,576.3116254,576.6383847,576.6388142,k,3.000444541,F04,Female,25,2023-02-07_14h16.40.665,id,2022.2.3,59.90662032,1,0
sound,kan,peak,1,image1/kan_taste.png,image2/kan_liver.png,1,2,2,0,616.9284615,616.9284615,617.2549872,617.2558624,k,3.400126625,F04,Female,25,2023-02-07_14h16.40.665,id,2022.2.3,59.90662032,2,0
sound,kan,peak,2,image1/kan_taste.png,image2/kan_liver.png,1,8,8,1,638.4014085,638.4014085,638.7390913,638.7392422,k,2.830167583,F04,Female,25,2023-02-07_14h16.40.665,id,2022.2.3,59.90662032,2,0
sound,pam,peak,3,image1/pam_night.png,image2/pam_chestnut.png,1,22,22,7,692.9256586,692.9256586,693.2721849,693.2727732,k,8.71855825,F04,Female,25,2023-02-07_14h16.40.665,id,2022.2.3,59.90662032,2,0
sound,pam,peak,5,image1/pam_night.png,image2/pam_chestnut.png,1,24,24,9,705.4720862,705.4720862,705.8060878,705.8060872,k,10.76443225,F04,Female,25,2023-02-07_14h16.40.665,id,2022.2.3,59.90662032,2,0
sound,pam,peak,2,image1/pam_night.png,image2/pam_chestnut.png,1,25,25,6,716.7312756,716.7312756,717.0728238,717.072805,k,2.935710083,F04,Female,25,2023-02-07_14h16.40.665,id,2022.2.3,59.90662032,2,0
sound,kan,peak,5,image1/kan_taste.png,image2/kan_liver.png,1,26,26,4,720.2139239,720.2139239,720.5388625,720.5389426,k,6.016578791,F04,Female,25,2023-02-07_14h16.40.665,id,2022.2.3,59.90662032,2,0
sound,pal,peak,5,image1/pal_foot.png,image2/pal_shade.png,1,27,27,14,726.7076712,726.7076712,727.0562288,727.0561222,d,4.083362833,F04,Female,25,2023-02-07_14h16.40.665,id,2022.2.3,59.90662032,2,1
sound,pam,peak,1,image1/pam_night.png,image2/pam_chestnut.png,1,31,31,5,743.8049741,743.8049741,744.1562262,744.1563672,k,3.42420125,F04,Female,25,2023-02-07_14h16.40.665,id,2022.2.3,59.90662032,2,0
sound,pal,peak,1,image1/pal_foot.png,image2/pal_shade.png,1,37,37,10,768.9622697,768.9622697,769.3229482,769.3229955,k,3.655526166,F04,Female,25,2023-02-07_14h16.40.665,id,2022.2.3,59.90662032,2,0
sound,pal,peak,3,image1/pal_foot.png,image2/pal_shade.png,1,40,40,12,780.260132,780.260132,780.6066611,780.606577,k,2.900631542,F04,Female,25,2023-02-07_14h16.40.665,id,2022.2.3,59.90662032,2,0
sound,kan,peak,3,image1/kan_taste.png,image2/kan_liver.png,1,42,42,2,788.2784255,788.2784255,788.6057456,788.6062945,k,8.072577791,F04,Female,25,2023-02-07_14h16.40.665,id,2022.2.3,59.90662032,2,0
sound,pam,peak,4,image1/pam_night.png,image2/pam_chestnut.png,1,53,53,8,837.9090659,837.9090659,838.2566897,838.2567525,k,9.668803875,F04,Female,25,2023-02-07_14h16.40.665,id,2022.2.3,59.90662032,2,0
sound,pal,peak,2,image1/pal_foot.png,image2/pal_shade.png,1,57,57,11,860.4304807,860.4304807,860.773709,860.7735603,k,2.972651417,F04,Female,25,2023-02-07_14h16.40.665,id,2022.2.3,59.90662032,2,0
sound,kan,peak,4,image1/kan_taste.png,image2/kan_liver.png,1,64,64,3,887.6619607,887.6619607,887.9901033,887.9901089,k,4.258061125,F04,Female,25,2023-02-07_14h16.40.665,id,2022.2.3,59.90662032,2,0
sound,pal,peak,4,image1/pal_foot.png,image2/pal_shade.png,1,74,74,13,929.2107081,929.2107081,929.5731291,929.5737366,k,4.247266999,F04,Female,25,2023-02-07_14h16.40.665,id,2022.2.3,59.90662032,2,0
sound,pam,peak,3,image1/pam_night.png,image2/pam_chestnut.png,1,5,5,7,953.7113662,953.7113662,954.057116,954.0572915,k,2.972775875,F04,Female,25,2023-02-07_14h16.40.665,id,2022.2.3,59.90662032,3,0
sound,pam,peak,1,image1/pam_night.png,image2/pam_chestnut.png,1,14,14,5,990.4486594,990.4486594,990.8072737,990.807348,k,2.906638958,F04,Female,25,2023-02-07_14h16.40.665,id,2022.2.3,59.90662032,3,0
sound,pam,peak,2,image1/pam_night.png,image2/pam_chestnut.png,1,20,20,6,1013.24167,1013.24167,1013.57432,1013.574155,d,6.925379875,F04,Female,25,2023-02-07_14h16.40.665,id,2022.2.3,59.90662032,3,1
sound,kan,peak,3,image1/kan_taste.png,image2/kan_liver.png,1,25,25,2,1039.910036,1039.910036,1040.240908,1040.241042,k,3.677731125,F04,Female,25,2023-02-07_14h16.40.665,id,2022.2.3,59.90662032,3,0
sound,pam,peak,4,image1/pam_night.png,image2/pam_chestnut.png,1,26,26,8,1044.094782,1044.094782,1044.44079,1044.441042,k,2.624801333,F04,Female,25,2023-02-07_14h16.40.665,id,2022.2.3,59.90662032,3,0
sound,kan,peak,1,image1/kan_taste.png,image2/kan_liver.png,1,31,31,0,1064.795264,1064.795264,1065.124425,1065.124375,k,4.59381375,F04,Female,25,2023-02-07_14h16.40.665,id,2022.2.3,59.90662032,3,0
sound,pam,peak,5,image1/pam_night.png,image2/pam_chestnut.png,1,41,41,9,1108.543106,1108.543106,1108.891345,1108.891336,k,3.940796917,F04,Female,25,2023-02-07_14h16.40.665,id,2022.2.3,59.90662032,3,0
sound,pal,peak,5,image1/pal_foot.png,image2/pal_shade.png,1,42,42,14,1112.999797,1112.999797,1113.357608,1113.357637,d,2.539379458,F04,Female,25,2023-02-07_14h16.40.665,id,2022.2.3,59.90662032,3,1
sound,pal,peak,3,image1/pal_foot.png,image2/pal_shade.png,1,43,43,12,1116.05636,1116.05636,1116.408042,1116.407983,k,4.377777583,F04,Female,25,2023-02-07_14h16.40.665,id,2022.2.3,59.90662032,3,0
sound,kan,peak,4,image1/kan_taste.png,image2/kan_liver.png,1,48,48,3,1137.875835,1137.875835,1138.207603,1138.208072,k,3.534213375,F04,Female,25,2023-02-07_14h16.40.665,id,2022.2.3,59.90662032,3,0
sound,pal,peak,4,image1/pal_foot.png,image2/pal_shade.png,1,52,52,13,1153.234009,1153.234009,1153.574633,1153.57454,k,3.963959,F04,Female,25,2023-02-07_14h16.40.665,id,2022.2.3,59.90662032,3,0
sound,kan,peak,2,image1/kan_taste.png,image2/kan_liver.png,1,56,56,1,1168.461716,1168.461716,1168.791307,1168.791268,k,6.286499208,F04,Female,25,2023-02-07_14h16.40.665,id,2022.2.3,59.90662032,3,0
sound,kan,peak,5,image1/kan_taste.png,image2/kan_liver.png,1,59,59,4,1182.65846,1182.65846,1182.990968,1182.991014,k,3.112549083,F04,Female,25,2023-02-07_14h16.40.665,id,2022.2.3,59.90662032,3,0
sound,pal,peak,1,image1/pal_foot.png,image2/pal_shade.png,1,63,63,10,1196.399258,1196.399258,1196.741639,1196.74173,k,4.859950833,F04,Female,25,2023-02-07_14h16.40.665,id,2022.2.3,59.90662032,3,0
sound,pal,peak,2,image1/pal_foot.png,image2/pal_shade.png,1,68,68,11,1221.289051,1221.289051,1221.641782,1221.6417,k,3.152624541,F04,Female,25,2023-02-07_14h16.40.665,id,2022.2.3,59.90662032,3,0
sound,pam,peak,2,image1/pam_night.png,image2/pam_chestnut.png,1,0,0,6,1276.55526,1276.55526,1276.891988,1276.891959,k,2.825802708,F04,Female,25,2023-02-07_14h16.40.665,id,2022.2.3,59.90662032,4,0
sound,kan,peak,5,image1/kan_taste.png,image2/kan_liver.png,1,8,8,4,1302.89892,1302.89892,1303.22545,1303.225566,k,4.244443333,F04,Female,25,2023-02-07_14h16.40.665,id,2022.2.3,59.90662032,4,0
sound,pal,peak,3,image1/pal_foot.png,image2/pal_shade.png,1,10,10,12,1311.283431,1311.283431,1311.625634,1311.625475,k,3.982539375,F04,Female,25,2023-02-07_14h16.40.665,id,2022.2.3,59.90662032,4,0
sound,pal,peak,4,image1/pal_foot.png,image2/pal_shade.png,1,13,13,13,1322.993702,1322.993702,1323.358846,1323.358964,k,3.234805416,F04,Female,25,2023-02-07_14h16.40.665,id,2022.2.3,59.90662032,4,0
sound,pam,peak,1,image1/pam_night.png,image2/pam_chestnut.png,1,18,18,5,1343.978536,1343.978536,1344.325732,1344.325898,k,5.979574375,F04,Female,25,2023-02-07_14h16.40.665,id,2022.2.3,59.90662032,4,0
sound,pal,peak,1,image1/pal_foot.png,image2/pal_shade.png,1,26,26,10,1377.165265,1377.165265,1377.525546,1377.525696,k,5.169408249,F04,Female,25,2023-02-07_14h16.40.665,id,2022.2.3,59.90662032,4,0
sound,kan,peak,1,image1/kan_taste.png,image2/kan_liver.png,1,30,30,0,1396.011005,1396.011005,1396.342553,1396.342452,k,3.986956,F04,Female,25,2023-02-07_14h16.40.665,id,2022.2.3,59.90662032,4,0
sound,pal,peak,2,image1/pal_foot.png,image2/pal_shade.png,1,36,36,11,1423.932647,1423.932647,1424.276137,1424.27604,k,2.734117041,F04,Female,25,2023-02-07_14h16.40.665,id,2022.2.3,59.90662032,4,0
sound,pam,peak,4,image1/pam_night.png,image2/pam_chestnut.png,1,41,41,8,1443.825862,1443.825862,1444.176051,1444.176139,k,2.958082749,F04,Female,25,2023-02-07_14h16.40.665,id,2022.2.3,59.90662032,4,0
sound,pam,peak,5,image1/pam_night.png,image2/pam_chestnut.png,1,55,55,9,1496.394996,1496.394996,1496.72633,1496.726399,k,2.932791333,F04,Female,25,2023-02-07_14h16.40.665,id,2022.2.3,59.90662032,4,0
sound,pal,peak,5,image1/pal_foot.png,image2/pal_shade.png,1,70,70,14,1550.696111,1550.696111,1551.043402,1551.043247,k,3.193099083,F04,Female,25,2023-02-07_14h16.40.665,id,2022.2.3,59.90662032,4,0
sound,kan,peak,4,image1/kan_taste.png,image2/kan_liver.png,1,71,71,3,1554.425483,1554.425483,1554.758847,1554.759244,k,2.894011333,F04,Female,25,2023-02-07_14h16.40.665,id,2022.2.3,59.90662032,4,0
sound,kan,peak,2,image1/kan_taste.png,image2/kan_liver.png,1,72,72,1,1557.83937,1557.83937,1558.176521,1558.176552,k,2.953503791,F04,Female,25,2023-02-07_14h16.40.665,id,2022.2.3,59.90662032,4,0
sound,pam,peak,3,image1/pam_night.png,image2/pam_chestnut.png,1,73,73,7,1561.311958,1561.311958,1561.643125,1561.643476,k,3.423522708,F04,Female,25,2023-02-07_14h16.40.665,id,2022.2.3,59.90662032,4,0
sound,kan,peak,3,image1/kan_taste.png,image2/kan_liver.png,1,74,74,2,1565.263378,1565.263378,1565.593223,1565.593288,k,3.203538791,F04,Female,25,2023-02-07_14h16.40.665,id,2022.2.3,59.90662032,4,0
sound,pam,peak,4,image1/pam_night.png,image2/pam_chestnut.png,1,0,0,8,206.6393971,206.6393971,206.949525,206.9497015,k,3.909158083,F05,Female,25,2023-02-08_15h07.49.188,id,2022.2.3,58.91917186,1,0
sound,kan,peak,3,image1/kan_taste.png,image2/kan_liver.png,1,19,19,2,286.1883592,286.1883592,286.4999703,286.5002754,k,2.965852458,F05,Female,25,2023-02-08_15h07.49.188,id,2022.2.3,58.91917186,1,0
sound,kan,peak,1,image1/kan_taste.png,image2/kan_liver.png,1,20,20,0,289.6629941,289.6629941,290.0000024,289.9983831,d,4.09401575,F05,Female,25,2023-02-08_15h07.49.188,id,2022.2.3,58.91917186,1,1
sound,pal,peak,1,image1/pal_foot.png,image2/pal_shade.png,1,21,21,10,294.2540084,294.2540084,294.6151524,294.6168424,k,6.988650791,F05,Female,25,2023-02-08_15h07.49.188,id,2022.2.3,58.91917186,1,0
sound,pal,peak,3,image1/pal_foot.png,image2/pal_shade.png,1,24,24,12,310.6243437,310.6243437,310.9673583,310.965264,d,3.799107625,F05,Female,25,2023-02-08_15h07.49.188,id,2022.2.3,58.91917186,1,1
sound,pam,peak,5,image1/pam_night.png,image2/pam_chestnut.png,1,25,25,9,314.9360744,314.9360744,315.2668249,315.2651958,k,4.741859416,F05,Female,25,2023-02-08_15h07.49.188,id,2022.2.3,58.91917186,1,0
sound,pal,peak,4,image1/pal_foot.png,image2/pal_shade.png,1,33,33,13,345.7236933,345.7236933,346.082034,346.0820907,k,3.225096333,F05,Female,25,2023-02-08_15h07.49.188,id,2022.2.3,58.91917186,1,0
sound,kan,peak,5,image1/kan_taste.png,image2/kan_liver.png,1,37,37,4,359.7696657,359.7696657,360.1005247,360.0988885,k,3.387881292,F05,Female,25,2023-02-08_15h07.49.188,id,2022.2.3,58.91917186,1,0
sound,pam,peak,3,image1/pam_night.png,image2/pam_chestnut.png,1,46,46,7,396.002148,396.002148,396.3339034,396.3323085,d,6.493937916,F05,Female,25,2023-02-08_15h07.49.188,id,2022.2.3,58.91917186,1,1
sound,pal,peak,2,image1/pal_foot.png,image2/pal_shade.png,1,50,50,11,412.2730368,412.2730368,412.632428,412.6343674,k,3.723080625,F05,Female,25,2023-02-08_15h07.49.188,id,2022.2.3,58.91917186,1,0
sound,pam,peak,1,image1/pam_night.png,image2/pam_chestnut.png,1,54,54,5,428.4002872,428.4002872,428.7339643,428.7325207,k,3.680057208,F05,Female,25,2023-02-08_15h07.49.188,id,2022.2.3,58.91917186,1,0
sound,pal,peak,5,image1/pal_foot.png,image2/pal_shade.png,1,62,62,14,461.7574298,461.7574298,462.1163254,462.1177428,k,3.468998541,F05,Female,25,2023-02-08_15h07.49.188,id,2022.2.3,58.91917186,1,0
sound,kan,peak,2,image1/kan_taste.png,image2/kan_liver.png,1,63,63,1,465.7874617,465.7874617,466.1010088,466.1009008,d,3.714531833,F05,Female,25,2023-02-08_15h07.49.188,id,2022.2.3,58.91917186,1,1
sound,pam,peak,2,image1/pam_night.png,image2/pam_chestnut.png,1,66,66,6,484.9632338,484.9632338,485.3011032,485.2994831,d,5.614943042,F05,Female,25,2023-02-08_15h07.49.188,id,2022.2.3,58.91917186,1,1
sound,kan,peak,4,image1/kan_taste.png,image2/kan_liver.png,1,67,67,3,491.1069964,491.1069964,491.4175318,491.4177929,k,3.523641999,F05,Female,25,2023-02-08_15h07.49.188,id,2022.2.3,58.91917186,1,0
sound,pam,peak,1,image1/pam_night.png,image2/pam_chestnut.png,1,1,1,5,552.2592386,552.2592386,552.5846698,552.5847403,k,3.712918666,F05,Female,25,2023-02-08_15h07.49.188,id,2022.2.3,58.91917186,2,0
sound,pal,peak,5,image1/pal_foot.png,image2/pal_shade.png,1,10,10,14,586.4922948,586.4922948,586.8350676,586.8332393,k,3.097111666,F05,Female,25,2023-02-08_15h07.49.188,id,2022.2.3,58.91917186,2,0
sound,pam,peak,3,image1/pam_night.png,image2/pam_chestnut.png,1,18,18,7,611.9039809,611.9039809,612.2349379,612.2334131,k,3.394364166,F05,Female,25,2023-02-08_15h07.49.188,id,2022.2.3,58.91917186,2,0
sound,pal,peak,1,image1/pal_foot.png,image2/pal_shade.png,1,20,20,10,621.6426729,621.6426729,621.9852128,621.985466,k,4.419368458,F05,Female,25,2023-02-08_15h07.49.188,id,2022.2.3,58.91917186,2,0
sound,pam,peak,2,image1/pam_night.png,image2/pam_chestnut.png,1,24,24,6,638.7198593,638.7198593,639.0517509,639.0503191,k,3.406219499,F05,Female,25,2023-02-08_15h07.49.188,id,2022.2.3,58.91917186,2,0
sound,pal,peak,2,image1/pal_foot.png,image2/pal_shade.png,1,34,34,11,673.158679,673.158679,673.5169897,673.519025,k,2.763580458,F05,Female,25,2023-02-08_15h07.49.188,id,2022.2.3,58.91917186,2,0
sound,kan,peak,2,image1/kan_taste.png,image2/kan_liver.png,1,46,46,1,712.8432163,712.8432163,713.1686461,713.1687113,k,3.428878166,F05,Female,25,2023-02-08_15h07.49.188,id,2022.2.3,58.91917186,2,0
sound,pal,peak,4,image1/pal_foot.png,image2/pal_shade.png,1,48,48,13,719.7905489,719.7905489,720.1508212,720.1523027,k,2.991118667,F05,Female,25,2023-02-08_15h07.49.188,id,2022.2.3,58.91917186,2,0
sound,kan,peak,4,image1/kan_taste.png,image2/kan_liver.png,1,55,55,3,746.2902703,746.2902703,746.61934,746.6174797,d,5.718743499,F05,Female,25,2023-02-08_15h07.49.188,id,2022.2.3,58.91917186,2,1
sound,pal,peak,3,image1/pal_foot.png,image2/pal_shade.png,1,57,57,12,756.1423444,756.1423444,756.500802,756.5028346,k,2.869220083,F05,Female,25,2023-02-08_15h07.49.188,id,2022.2.3,58.91917186,2,0
sound,kan,peak,5,image1/kan_taste.png,image2/kan_liver.png,1,65,65,4,784.1236812,784.1236812,784.436764,784.4361211,k,3.288680374,F05,Female,25,2023-02-08_15h07.49.188,id,2022.2.3,58.91917186,2,0
sound,kan,peak,3,image1/kan_taste.png,image2/kan_liver.png,1,68,68,2,794.4595106,794.4595106,794.7860043,794.7865888,k,3.090979249,F05,Female,25,2023-02-08_15h07.49.188,id,2022.2.3,58.91917186,2,0
sound,pam,peak,5,image1/pam_night.png,image2/pam_chestnut.png,1,71,71,9,804.4710702,804.4710702,804.8177249,804.8179145,k,3.376409291,F05,Female,25,2023-02-08_15h07.49.188,id,2022.2.3,58.91917186,2,0
sound,pam,peak,4,image1/pam_night.png,image2/pam_chestnut.png,1,73,73,8,811.6553005,811.6553005,811.9863164,811.9846398,k,3.444460041,F05,Female,25,2023-02-08_15h07.49.188,id,2022.2.3,58.91917186,2,0
sound,kan,peak,1,image1/kan_taste.png,image2/kan_liver.png,1,74,74,0,815.6238327,815.6238327,815.9529338,815.9510998,k,3.038796041,F05,Female,25,2023-02-08_15h07.49.188,id,2022.2.3,58.91917186,2,0
sound,pam,peak,5,image1/pam_night.png,image2/pam_chestnut.png,1,6,6,9,839.4024669,839.4024669,839.736446,839.7348235,k,3.185393292,F05,Female,25,2023-02-08_15h07.49.188,id,2022.2.3,58.91917186,3,0
sound,pam,peak,1,image1/pam_night.png,image2/pam_chestnut.png,1,9,9,5,849.2883978,849.2883978,849.6198032,849.6181828,k,3.357937958,F05,Female,25,2023-02-08_15h07.49.188,id,2022.2.3,58.91917186,3,0
sound,pal,peak,5,image1/pal_foot.png,image2/pal_shade.png,1,11,11,14,855.9632793,855.9632793,856.3031144,856.3015169,k,4.698361416,F05,Female,25,2023-02-08_15h07.49.188,id,2022.2.3,58.91917186,3,0
sound,kan,peak,1,image1/kan_taste.png,image2/kan_liver.png,1,15,15,0,871.4285084,871.4285084,871.7352263,871.7366465,k,3.303742958,F05,Female,25,2023-02-08_15h07.49.188,id,2022.2.3,58.91917186,3,0
sound,pam,peak,4,image1/pam_night.png,image2/pam_chestnut.png,1,19,19,8,885.5710677,885.5710677,885.9030356,885.9015005,k,3.083461,F05,Female,25,2023-02-08_15h07.49.188,id,2022.2.3,58.91917186,3,0
sound,pam,peak,2,image1/pam_night.png,image2/pam_chestnut.png,1,20,20,6,889.1449611,889.1449611,889.4866221,889.485256,k,2.98056,F05,Female,25,2023-02-08_15h07.49.188,id,2022.2.3,58.91917186,3,0
sound,pal,peak,2,image1/pal_foot.png,image2/pal_shade.png,1,30,30,11,921.9107022,921.9107022,922.2534348,922.2518465,k,3.097032791,F05,Female,25,2023-02-08_15h07.49.188,id,2022.2.3,58.91917186,3,0
sound,pal,peak,4,image1/pal_foot.png,image2/pal_shade.png,1,33,33,13,932.3615959,932.3615959,932.7185216,932.7185195,d,4.680919041,F05,Female,25,2023-02-08_15h07.49.188,id,2022.2.3,58.91917186,3,1
sound,pal,peak,3,image1/pal_foot.png,image2/pal_shade.png,1,34,34,12,937.5525175,937.5525175,937.918446,937.9205163,d,2.577450625,F05,Female,25,2023-02-08_15h07.49.188,id,2022.2.3,58.91917186,3,1
sound,kan,peak,2,image1/kan_taste.png,image2/kan_liver.png,1,35,35,1,940.6887023,940.6887023,941.003521,941.0034362,d,4.883726333,F05,Female,25,2023-02-08_15h07.49.188,id,2022.2.3,58.91917186,3,1
sound,kan,peak,4,image1/kan_taste.png,image2/kan_liver.png,1,48,48,3,987.6881211,987.6881211,988.0037602,988.0037785,k,3.606850125,F05,Female,25,2023-02-08_15h07.49.188,id,2022.2.3,58.91917186,3,0
sound,pam,peak,3,image1/pam_night.png,image2/pam_chestnut.png,1,50,50,7,995.095846,995.095846,995.4369725,995.4353963,d,2.417011958,F05,Female,25,2023-02-08_15h07.49.188,id,2022.2.3,58.91917186,3,1
sound,pal,peak,1,image1/pal_foot.png,image2/pal_shade.png,1,56,56,10,1014.621571,1014.621571,1014.985878,1014.987251,k,2.604643375,F05,Female,25,2023-02-08_15h07.49.188,id,2022.2.3,58.91917186,3,0
sound,kan,peak,5,image1/kan_taste.png,image2/kan_liver.png,1,57,57,4,1017.787011,1017.787011,1018.103968,1018.104104,k,2.750928583,F05,Female,25,2023-02-08_15h07.49.188,id,2022.2.3,58.91917186,3,0
sound,kan,peak,3,image1/kan_taste.png,image2/kan_liver.png,1,65,65,2,1046.277601,1046.277601,1046.604006,1046.604013,k,2.862191958,F05,Female,25,2023-02-08_15h07.49.188,id,2022.2.3,58.91917186,3,0
sound,pal,peak,2,image1/pal_foot.png,image2/pal_shade.png,1,2,2,11,1115.379421,1115.379421,1115.720822,1115.719592,k,2.943752375,F05,Female,25,2023-02-08_15h07.49.188,id,2022.2.3,58.91917186,4,0
sound,kan,peak,5,image1/kan_taste.png,image2/kan_liver.png,1,5,5,4,1125.059973,1125.059973,1125.387778,1125.386194,k,2.647870125,F05,Female,25,2023-02-08_15h07.49.188,id,2022.2.3,58.91917186,4,0
sound,kan,peak,3,image1/kan_taste.png,image2/kan_liver.png,1,10,10,2,1140.853733,1140.853733,1141.171246,1141.17128,k,3.010368166,F05,Female,25,2023-02-08_15h07.49.188,id,2022.2.3,58.91917186,4,0
sound,kan,peak,4,image1/kan_taste.png,image2/kan_liver.png,1,14,14,3,1157.19553,1157.19553,1157.521163,1157.521507,k,2.827838583,F05,Female,25,2023-02-08_15h07.49.188,id,2022.2.3,58.91917186,4,0
sound,pam,peak,2,image1/pam_night.png,image2/pam_chestnut.png,1,18,18,6,1170.108547,1170.108547,1170.437847,1170.436251,k,2.729730875,F05,Female,25,2023-02-08_15h07.49.188,id,2022.2.3,58.91917186,4,0
sound,pam,peak,5,image1/pam_night.png,image2/pam_chestnut.png,1,20,20,9,1177.189414,1177.189414,1177.521203,1177.519826,k,2.713040791,F05,Female,25,2023-02-08_15h07.49.188,id,2022.2.3,58.91917186,4,0
sound,pal,peak,4,image1/pal_foot.png,image2/pal_shade.png,1,23,23,13,1186.862521,1186.862521,1187.204806,1187.203247,k,2.986464374,F05,Female,25,2023-02-08_15h07.49.188,id,2022.2.3,58.91917186,4,0
sound,kan,peak,2,image1/kan_taste.png,image2/kan_liver.png,1,26,26,1,1197.126247,1197.126247,1197.4547,1197.452974,k,2.789301375,F05,Female,25,2023-02-08_15h07.49.188,id,2022.2.3,58.91917186,4,0
sound,pal,peak,5,image1/pal_foot.png,image2/pal_shade.png,1,34,34,14,1224.945192,1224.945192,1225.288207,1225.286664,k,3.5320335,F05,Female,25,2023-02-08_15h07.49.188,id,2022.2.3,58.91917186,4,0
sound,pam,peak,3,image1/pam_night.png,image2/pam_chestnut.png,1,35,35,7,1228.990395,1228.990395,1229.321492,1229.319848,k,2.979697083,F05,Female,25,2023-02-08_15h07.49.188,id,2022.2.3,58.91917186,4,0
sound,pam,peak,4,image1/pam_night.png,image2/pam_chestnut.png,1,38,38,8,1238.422814,1238.422814,1238.769946,1238.770019,k,2.827381208,F05,Female,25,2023-02-08_15h07.49.188,id,2022.2.3,58.91917186,4,0
sound,pam,peak,1,image1/pam_night.png,image2/pam_chestnut.png,1,45,45,5,1260.355744,1260.355744,1260.688207,1260.686753,k,3.204969125,F05,Female,25,2023-02-08_15h07.49.188,id,2022.2.3,58.91917186,4,0
sound,kan,peak,1,image1/kan_taste.png,image2/kan_liver.png,1,53,53,0,1287.490122,1287.490122,1287.805131,1287.805354,k,2.852184624,F05,Female,25,2023-02-08_15h07.49.188,id,2022.2.3,58.91917186,4,0
sound,pal,peak,3,image1/pal_foot.png,image2/pal_shade.png,1,61,61,12,1313.963139,1313.963139,1314.305541,1314.30368,k,3.815915124,F05,Female,25,2023-02-08_15h07.49.188,id,2022.2.3,58.91917186,4,0
sound,pal,peak,1,image1/pal_foot.png,image2/pal_shade.png,1,68,68,10,1341.246664,1341.246664,1341.588746,1341.587194,k,2.644705499,F05,Female,25,2023-02-08_15h07.49.188,id,2022.2.3,58.91917186,4,0
sound,pam,peak,3,image1/pam_night.png,image2/pam_chestnut.png,1,3,3,7,751.9691599,751.9691599,752.2960911,752.2853028,d,5.196523832,F06,Female,22,2023-02-13_13h29.47.737,id,2022.2.3,None,1,1
sound,pam,peak,5,image1/pam_night.png,image2/pam_chestnut.png,1,4,4,9,757.6498528,757.6498528,757.9961773,757.984317,d,21.26310075,F06,Female,22,2023-02-13_13h29.47.737,id,2022.2.3,None,1,1
sound,pam,peak,1,image1/pam_night.png,image2/pam_chestnut.png,1,6,6,5,784.6975844,784.6975844,785.0337032,785.0299712,k,5.376720666,F06,Female,22,2023-02-13_13h29.47.737,id,2022.2.3,None,1,0
sound,pal,peak,5,image1/pal_foot.png,image2/pal_shade.png,1,11,11,14,807.3314546,807.3314546,807.6799494,807.6673958,d,4.763988957,F06,Female,22,2023-02-13_13h29.47.737,id,2022.2.3,None,1,1
sound,kan,peak,1,image1/kan_taste.png,image2/kan_liver.png,1,16,16,0,831.9282276,831.9282276,832.2341421,832.2298198,d,5.161537291,F06,Female,22,2023-02-13_13h29.47.737,id,2022.2.3,None,1,1
sound,pal,peak,3,image1/pal_foot.png,image2/pal_shade.png,1,21,21,12,857.2984033,857.2984033,857.6468727,857.6351664,k,6.443645416,F06,Female,22,2023-02-13_13h29.47.737,id,2022.2.3,None,1,0
sound,kan,peak,5,image1/kan_taste.png,image2/kan_liver.png,1,31,31,4,901.3151285,901.3151285,901.63012,901.6192707,k,3.281683791,F06,Female,22,2023-02-13_13h29.47.737,id,2022.2.3,None,1,0
sound,pal,peak,2,image1/pal_foot.png,image2/pal_shade.png,1,32,32,11,905.0592222,905.0592222,905.4018911,905.3970098,d,3.726207541,F06,Female,22,2023-02-13_13h29.47.737,id,2022.2.3,None,1,1
sound,kan,peak,4,image1/kan_taste.png,image2/kan_liver.png,1,35,35,3,916.4419477,916.4419477,916.7521637,916.7469192,k,4.800074916,F06,Female,22,2023-02-13_13h29.47.737,id,2022.2.3,None,1,0
sound,pal,peak,1,image1/pal_foot.png,image2/pal_shade.png,1,36,36,10,921.7029432,921.7029432,922.047068,922.0346643,k,2.648238583,F06,Female,22,2023-02-13_13h29.47.737,id,2022.2.3,None,1,0
sound,kan,peak,3,image1/kan_taste.png,image2/kan_liver.png,1,41,41,2,938.1414553,938.1414553,938.447044,938.4364237,k,2.9351355,F06,Female,22,2023-02-13_13h29.47.737,id,2022.2.3,None,1,0
sound,pam,peak,4,image1/pam_night.png,image2/pam_chestnut.png,1,47,47,8,978.3536335,978.3536335,978.680695,978.6690387,k,4.657224666,F06,Female,22,2023-02-13_13h29.47.737,id,2022.2.3,None,1,0
sound,kan,peak,2,image1/kan_taste.png,image2/kan_liver.png,1,53,53,1,1009.557625,1009.557625,1009.864413,1009.852621,k,16.84594592,F06,Female,22,2023-02-13_13h29.47.737,id,2022.2.3,None,1,0
sound,pam,peak,2,image1/pam_night.png,image2/pam_chestnut.png,1,57,57,6,1058.674823,1058.674823,1059.014443,1059.002741,k,3.633797333,F06,Female,22,2023-02-13_13h29.47.737,id,2022.2.3,None,1,0
sound,pal,peak,4,image1/pal_foot.png,image2/pal_shade.png,1,67,67,13,1109.663102,1109.663102,1109.998034,1109.987185,k,6.49295125,F06,Female,22,2023-02-13_13h29.47.737,id,2022.2.3,None,1,0
sound,pal,peak,3,image1/pal_foot.png,image2/pal_shade.png,1,0,0,12,1170.097007,1170.097007,1170.448296,1170.43589,k,12.42801096,F06,Female,22,2023-02-13_13h29.47.737,id,2022.2.3,None,2,0
sound,pal,peak,2,image1/pal_foot.png,image2/pal_shade.png,1,7,7,11,1201.948446,1201.948446,1202.286283,1202.281736,k,7.891296999,F06,Female,22,2023-02-13_13h29.47.737,id,2022.2.3,None,2,0
sound,pal,peak,1,image1/pal_foot.png,image2/pal_shade.png,1,8,8,10,1210.334167,1210.334167,1210.681984,1210.671404,k,8.949533291,F06,Female,22,2023-02-13_13h29.47.737,id,2022.2.3,None,2,0
sound,kan,peak,5,image1/kan_taste.png,image2/kan_liver.png,1,9,9,4,1219.815427,1219.815427,1220.131933,1220.120239,k,2.762455291,F06,Female,22,2023-02-13_13h29.47.737,id,2022.2.3,None,2,0
sound,pal,peak,5,image1/pal_foot.png,image2/pal_shade.png,1,12,12,14,1229.903304,1229.903304,1230.254472,1230.248643,k,2.703828458,F06,Female,22,2023-02-13_13h29.47.737,id,2022.2.3,None,2,0
sound,pam,peak,3,image1/pam_night.png,image2/pam_chestnut.png,1,15,15,7,1245.847534,1245.847534,1246.182247,1246.170851,k,2.994138416,F06,Female,22,2023-02-13_13h29.47.737,id,2022.2.3,None,2,0
sound,kan,peak,3,image1/kan_taste.png,image2/kan_liver.png,1,21,21,2,1266.780403,1266.780403,1267.086543,1267.082072,d,8.208234374,F06,Female,22,2023-02-13_13h29.47.737,id,2022.2.3,None,2,1
sound,pam,peak,1,image1/pam_night.png,image2/pam_chestnut.png,1,25,25,5,1284.809903,1284.809903,1285.13231,1285.120548,k,3.594498457,F06,Female,22,2023-02-13_13h29.47.737,id,2022.2.3,None,2,0
sound,pal,peak,4,image1/pal_foot.png,image2/pal_shade.png,1,27,27,13,1297.672088,1297.672088,1298.015729,1298.003423,k,3.636488458,F06,Female,22,2023-02-13_13h29.47.737,id,2022.2.3,None,2,0
sound,pam,peak,2,image1/pam_night.png,image2/pam_chestnut.png,1,43,43,6,1362.973415,1362.973415,1363.299204,1363.287917,k,2.773976457,F06,Female,22,2023-02-13_13h29.47.737,id,2022.2.3,None,2,0
sound,kan,peak,2,image1/kan_taste.png,image2/kan_liver.png,1,52,52,1,1398.864045,1398.864045,1399.166107,1399.155655,k,3.434370957,F06,Female,22,2023-02-13_13h29.47.737,id,2022.2.3,None,2,0
sound,pam,peak,4,image1/pam_night.png,image2/pam_chestnut.png,1,58,58,8,1419.880546,1419.880546,1420.216275,1420.204425,k,7.076883041,F06,Female,22,2023-02-13_13h29.47.737,id,2022.2.3,None,2,0
sound,pam,peak,5,image1/pam_night.png,image2/pam_chestnut.png,1,59,59,9,1427.445114,1427.445114,1427.783154,1427.770902,k,4.615097458,F06,Female,22,2023-02-13_13h29.47.737,id,2022.2.3,None,2,0
sound,kan,peak,1,image1/kan_taste.png,image2/kan_liver.png,1,65,65,0,1451.039282,1451.039282,1451.349709,1451.338431,k,3.000145583,F06,Female,22,2023-02-13_13h29.47.737,id,2022.2.3,None,2,0
sound,kan,peak,4,image1/kan_taste.png,image2/kan_liver.png,1,73,73,3,1485.130124,1485.130124,1485.43331,1485.42251,k,3.354133791,F06,Female,22,2023-02-13_13h29.47.737,id,2022.2.3,None,2,0
sound,pam,peak,4,image1/pam_night.png,image2/pam_chestnut.png,1,0,0,8,1494.116544,1494.116544,1494.438943,1494.433341,k,5.503880166,F06,Female,22,2023-02-13_13h29.47.737,id,2022.2.3,None,3,0
sound,pal,peak,3,image1/pal_foot.png,image2/pal_shade.png,1,8,8,12,1526.669447,1526.669447,1527.016985,1527.00511,k,6.431234416,F06,Female,22,2023-02-13_13h29.47.737,id,2022.2.3,None,3,0
sound,kan,peak,1,image1/kan_taste.png,image2/kan_liver.png,1,11,11,0,1539.767469,1539.767469,1540.072495,1540.067004,k,9.489935416,F06,Female,22,2023-02-13_13h29.47.737,id,2022.2.3,None,3,0
sound,kan,peak,4,image1/kan_taste.png,image2/kan_liver.png,1,13,13,3,1553.199144,1553.199144,1553.516739,1553.505507,k,5.481155749,F06,Female,22,2023-02-13_13h29.47.737,id,2022.2.3,None,3,0
sound,kan,peak,3,image1/kan_taste.png,image2/kan_liver.png,1,16,16,2,1566.514188,1566.514188,1566.833721,1566.82313,k,3.929228374,F06,Female,22,2023-02-13_13h29.47.737,id,2022.2.3,None,3,0
sound,pam,peak,2,image1/pam_night.png,image2/pam_chestnut.png,1,17,17,6,1570.929294,1570.929294,1571.266856,1571.25592,k,3.955365166,F06,Female,22,2023-02-13_13h29.47.737,id,2022.2.3,None,3,0
sound,pal,peak,4,image1/pal_foot.png,image2/pal_shade.png,1,28,28,13,1614.930751,1614.930751,1615.272383,1615.267272,k,3.897116208,F06,Female,22,2023-02-13_13h29.47.737,id,2022.2.3,None,3,0
sound,pal,peak,2,image1/pal_foot.png,image2/pal_shade.png,1,33,33,11,1632.580381,1632.580381,1632.917065,1632.904734,k,4.576202666,F06,Female,22,2023-02-13_13h29.47.737,id,2022.2.3,None,3,0
sound,kan,peak,5,image1/kan_taste.png,image2/kan_liver.png,1,35,35,4,1641.028254,1641.028254,1641.350832,1641.338624,k,2.483227624,F06,Female,22,2023-02-13_13h29.47.737,id,2022.2.3,None,3,0
sound,pal,peak,1,image1/pal_foot.png,image2/pal_shade.png,1,40,40,10,1660.7158,1660.7158,1661.050641,1661.040048,k,4.675096916,F06,Female,22,2023-02-13_13h29.47.737,id,2022.2.3,None,3,0
sound,pam,peak,1,image1/pam_night.png,image2/pam_chestnut.png,1,46,46,5,1684.338345,1684.338345,1684.684064,1684.672206,k,3.374563332,F06,Female,22,2023-02-13_13h29.47.737,id,2022.2.3,None,3,0
sound,kan,peak,2,image1/kan_taste.png,image2/kan_liver.png,1,49,49,1,1695.165603,1695.165603,1695.467539,1695.456086,k,3.560360499,F06,Female,22,2023-02-13_13h29.47.737,id,2022.2.3,None,3,0
sound,pam,peak,5,image1/pam_night.png,image2/pam_chestnut.png,1,63,63,9,1763.065133,1763.065133,1763.401122,1763.389609,k,3.406392708,F06,Female,22,2023-02-13_13h29.47.737,id,2022.2.3,None,3,0
sound,pal,peak,5,image1/pal_foot.png,image2/pal_shade.png,1,70,70,14,1791.748526,1791.748526,1792.084634,1792.074497,d,4.836426832,F06,Female,22,2023-02-13_13h29.47.737,id,2022.2.3,None,3,1
sound,pam,peak,3,image1/pam_night.png,image2/pam_chestnut.png,1,71,71,7,1797.094166,1797.094166,1797.418022,1797.406802,k,11.53875287,F06,Female,22,2023-02-13_13h29.47.737,id,2022.2.3,None,3,0
sound,pam,peak,5,image1/pam_night.png,image2/pam_chestnut.png,1,1,1,9,1854.572607,1854.572607,1854.907021,1854.901534,k,3.252759458,F06,Female,22,2023-02-13_13h29.47.737,id,2022.2.3,None,4,0
sound,kan,peak,1,image1/kan_taste.png,image2/kan_liver.png,1,2,2,0,1858.351971,1858.351971,1858.657184,1858.65167,k,4.899519083,F06,Female,22,2023-02-13_13h29.47.737,id,2022.2.3,None,4,0
sound,kan,peak,5,image1/kan_taste.png,image2/kan_liver.png,1,11,11,4,1895.6494,1895.6494,1895.951852,1895.940144,k,5.711036916,F06,Female,22,2023-02-13_13h29.47.737,id,2022.2.3,None,4,0
sound,pal,peak,5,image1/pal_foot.png,image2/pal_shade.png,1,17,17,14,1922.719862,1922.719862,1923.052226,1923.040814,d,10.35940883,F06,Female,22,2023-02-13_13h29.47.737,id,2022.2.3,None,4,1
sound,pam,peak,1,image1/pam_night.png,image2/pam_chestnut.png,1,18,18,5,1933.578263,1933.578263,1933.901962,1933.890184,k,6.697129999,F06,Female,22,2023-02-13_13h29.47.737,id,2022.2.3,None,4,0
sound,kan,peak,2,image1/kan_taste.png,image2/kan_liver.png,1,19,19,1,1940.784844,1940.784844,1941.102405,1941.09288,k,3.377048166,F06,Female,22,2023-02-13_13h29.47.737,id,2022.2.3,None,4,0
sound,pal,peak,3,image1/pal_foot.png,image2/pal_shade.png,1,23,23,12,1954.802911,1954.802911,1955.152062,1955.14028,k,6.817201041,F06,Female,22,2023-02-13_13h29.47.737,id,2022.2.3,None,4,0
sound,pam,peak,2,image1/pam_night.png,image2/pam_chestnut.png,1,33,33,6,1993.26843,1993.26843,1993.602335,1993.591009,k,5.112398124,F06,Female,22,2023-02-13_13h29.47.737,id,2022.2.3,None,4,0
sound,kan,peak,4,image1/kan_taste.png,image2/kan_liver.png,1,41,41,3,2028.299565,2028.299565,2028.61905,2028.608222,k,3.602419458,F06,Female,22,2023-02-13_13h29.47.737,id,2022.2.3,None,4,0
sound,pam,peak,3,image1/pam_night.png,image2/pam_chestnut.png,1,58,58,7,2117.311983,2117.311983,2117.642175,2117.636224,k,4.665860833,F06,Female,22,2023-02-13_13h29.47.737,id,2022.2.3,None,4,0
sound,pal,peak,1,image1/pal_foot.png,image2/pal_shade.png,1,61,61,10,2129.091554,2129.091554,2129.441451,2129.436132,k,6.628666791,F06,Female,22,2023-02-13_13h29.47.737,id,2022.2.3,None,4,0
sound,kan,peak,3,image1/kan_taste.png,image2/kan_liver.png,1,67,67,2,2153.98727,2153.98727,2154.303027,2154.291328,k,4.0538175,F06,Female,22,2023-02-13_13h29.47.737,id,2022.2.3,None,4,0
sound,pal,peak,4,image1/pal_foot.png,image2/pal_shade.png,1,70,70,13,2165.868697,2165.868697,2166.209084,2166.203244,k,3.371539083,F06,Female,22,2023-02-13_13h29.47.737,id,2022.2.3,None,4,0
sound,pal,peak,2,image1/pal_foot.png,image2/pal_shade.png,1,72,72,11,2172.953423,2172.953423,2173.303404,2173.291577,k,3.260096708,F06,Female,22,2023-02-13_13h29.47.737,id,2022.2.3,None,4,0
sound,pam,peak,4,image1/pam_night.png,image2/pam_chestnut.png,1,74,74,8,2179.57655,2179.57655,2179.907586,2179.903145,k,3.800332041,F06,Female,22,2023-02-13_13h29.47.737,id,2022.2.3,None,4,0
sound,pal,peak,3,image1/pal_foot.png,image2/pal_shade.png,1,4,4,12,703.6226088,703.6226088,703.9765956,703.9658016,d,4.458144708,F07,Female,20,2023-02-13_14h10.46.160,id,2022.2.3,None,1,1
sound,pam,peak,2,image1/pam_night.png,image2/pam_chestnut.png,1,10,10,6,736.5940495,736.5940495,736.92711,736.9153356,k,3.094886666,F07,Female,20,2023-02-13_14h10.46.160,id,2022.2.3,None,1,0
sound,pam,peak,1,image1/pam_night.png,image2/pam_chestnut.png,1,18,18,5,777.8791542,777.8791542,778.2270563,778.215372,k,4.814056833,F07,Female,20,2023-02-13_14h10.46.160,id,2022.2.3,None,1,0
sound,pal,peak,2,image1/pal_foot.png,image2/pal_shade.png,1,21,21,11,790.8020523,790.8020523,791.1440016,791.1333454,d,4.990559125,F07,Female,20,2023-02-13_14h10.46.160,id,2022.2.3,None,1,1
sound,pal,peak,5,image1/pal_foot.png,image2/pal_shade.png,1,22,22,14,796.2756907,796.2756907,796.6273961,796.61493,k,3.038925958,F07,Female,20,2023-02-13_14h10.46.160,id,2022.2.3,None,1,0
sound,kan,peak,2,image1/kan_taste.png,image2/kan_liver.png,1,25,25,1,807.2241205,807.2241205,807.5438989,807.5313233,k,5.038881041,F07,Female,20,2023-02-13_14h10.46.160,id,2022.2.3,None,1,0
sound,pal,peak,4,image1/pal_foot.png,image2/pal_shade.png,1,34,34,13,845.4200613,845.4200613,845.7607563,845.7491426,k,6.166254458,F07,Female,20,2023-02-13_14h10.46.160,id,2022.2.3,None,1,0
sound,kan,peak,4,image1/kan_taste.png,image2/kan_liver.png,1,38,38,3,862.7524033,862.7524033,863.0609585,863.0497128,k,4.075997083,F07,Female,20,2023-02-13_14h10.46.160,id,2022.2.3,None,1,0
sound,pam,peak,3,image1/pam_night.png,image2/pam_chestnut.png,1,41,41,7,873.8626625,873.8626625,874.194408,874.1826938,k,4.148477208,F07,Female,20,2023-02-13_14h10.46.160,id,2022.2.3,None,1,0
sound,kan,peak,3,image1/kan_taste.png,image2/kan_liver.png,1,44,44,2,886.261817,886.261817,886.5776124,886.5651327,d,4.512225917,F07,Female,20,2023-02-13_14h10.46.160,id,2022.2.3,None,1,1
sound,kan,peak,1,image1/kan_taste.png,image2/kan_liver.png,1,45,45,0,891.2574787,891.2574787,891.5779135,891.5661418,d,3.640132416,F07,Female,20,2023-02-13_14h10.46.160,id,2022.2.3,None,1,1
sound,pam,peak,5,image1/pam_night.png,image2/pam_chestnut.png,1,49,49,9,906.9134823,906.9134823,907.2445616,907.2332642,k,4.435643374,F07,Female,20,2023-02-13_14h10.46.160,id,2022.2.3,None,1,0
sound,pam,peak,4,image1/pam_night.png,image2/pam_chestnut.png,1,58,58,8,949.2475058,949.2475058,949.5781749,949.566387,k,3.625031,F07,Female,20,2023-02-13_14h10.46.160,id,2022.2.3,None,1,0
sound,pal,peak,1,image1/pal_foot.png,image2/pal_shade.png,1,59,59,10,953.3542114,953.3542114,953.7005278,953.6948068,d,4.577231375,F07,Female,20,2023-02-13_14h10.46.160,id,2022.2.3,None,1,1
sound,kan,peak,5,image1/kan_taste.png,image2/kan_liver.png,1,64,64,4,975.4673062,975.4673062,975.7825848,975.7783738,k,6.631110166,F07,Female,20,2023-02-13_14h10.46.160,id,2022.2.3,None,1,0
sound,pam,peak,1,image1/pam_night.png,image2/pam_chestnut.png,1,2,2,5,1059.318375,1059.318375,1059.649272,1059.645182,k,3.027513583,F07,Female,20,2023-02-13_14h10.46.160,id,2022.2.3,None,2,0
sound,kan,peak,1,image1/kan_taste.png,image2/kan_liver.png,1,3,3,0,1062.869561,1062.869561,1063.183929,1063.178406,k,3.014092292,F07,Female,20,2023-02-13_14h10.46.160,id,2022.2.3,None,2,0
sound,pal,peak,5,image1/pal_foot.png,image2/pal_shade.png,1,10,10,14,1087.70455,1087.70455,1088.045288,1088.032951,k,3.260908083,F07,Female,20,2023-02-13_14h10.46.160,id,2022.2.3,None,2,0
sound,kan,peak,5,image1/kan_taste.png,image2/kan_liver.png,1,28,28,4,1150.920146,1150.920146,1151.229208,1151.216708,k,3.040371333,F07,Female,20,2023-02-13_14h10.46.160,id,2022.2.3,None,2,0
sound,pam,peak,4,image1/pam_night.png,image2/pam_chestnut.png,1,34,34,8,1170.146807,1170.146807,1170.484064,1170.479243,k,2.435347791,F07,Female,20,2023-02-13_14h10.46.160,id,2022.2.3,None,2,0
sound,pam,peak,2,image1/pam_night.png,image2/pam_chestnut.png,1,36,36,6,1177.682788,1177.682788,1178.012629,1178.000397,d,5.113003458,F07,Female,20,2023-02-13_14h10.46.160,id,2022.2.3,None,2,1
sound,kan,peak,2,image1/kan_taste.png,image2/kan_liver.png,1,39,39,1,1191.459579,1191.459579,1191.779219,1191.766754,d,3.255835375,F07,Female,20,2023-02-13_14h10.46.160,id,2022.2.3,None,2,1
sound,pal,peak,2,image1/pal_foot.png,image2/pal_shade.png,1,54,54,11,1248.659478,1248.659478,1249.001824,1248.996373,k,3.330701958,F07,Female,20,2023-02-13_14h10.46.160,id,2022.2.3,None,2,0
sound,pal,peak,4,image1/pal_foot.png,image2/pal_shade.png,1,57,57,13,1259.074963,1259.074963,1259.429631,1259.417055,k,2.696737291,F07,Female,20,2023-02-13_14h10.46.160,id,2022.2.3,None,2,0
sound,pam,peak,3,image1/pam_night.png,image2/pam_chestnut.png,1,61,61,7,1272.726926,1272.726926,1273.062939,1273.051251,k,2.622192624,F07,Female,20,2023-02-13_14h10.46.160,id,2022.2.3,None,2,0
sound,pal,peak,1,image1/pal_foot.png,image2/pal_shade.png,1,66,66,10,1289.97517,1289.97517,1290.329844,1290.318141,k,2.839721083,F07,Female,20,2023-02-13_14h10.46.160,id,2022.2.3,None,2,0
sound,pam,peak,5,image1/pam_night.png,image2/pam_chestnut.png,1,67,67,9,1293.332789,1293.332789,1293.666858,1293.663308,k,2.557445708,F07,Female,20,2023-02-13_14h10.46.160,id,2022.2.3,None,2,0
sound,kan,peak,4,image1/kan_taste.png,image2/kan_liver.png,1,69,69,3,1299.909764,1299.909764,1300.229709,1300.217254,k,3.411402583,F07,Female,20,2023-02-13_14h10.46.160,id,2022.2.3,None,2,0
sound,kan,peak,3,image1/kan_taste.png,image2/kan_liver.png,1,72,72,2,1310.879293,1310.879293,1311.196355,1311.185122,k,3.17809975,F07,Female,20,2023-02-13_14h10.46.160,id,2022.2.3,None,2,0
sound,pal,peak,3,image1/pal_foot.png,image2/pal_shade.png,1,73,73,12,1314.520545,1314.520545,1314.867368,1314.863355,k,2.852763875,F07,Female,20,2023-02-13_14h10.46.160,id,2022.2.3,None,2,0
sound,pam,peak,1,image1/pam_night.png,image2/pam_chestnut.png,1,0,0,5,1322.603388,1322.603388,1322.929742,1322.918472,k,3.093918624,F07,Female,20,2023-02-13_14h10.46.160,id,2022.2.3,None,3,0
sound,pam,peak,5,image1/pam_night.png,image2/pam_chestnut.png,1,1,1,9,1326.178085,1326.178085,1326.517343,1326.513219,k,3.0719225,F07,Female,20,2023-02-13_14h10.46.160,id,2022.2.3,None,3,0
sound,pal,peak,4,image1/pal_foot.png,image2/pal_shade.png,1,7,7,13,1347.939249,1347.939249,1348.296931,1348.284617,k,2.891672042,F07,Female,20,2023-02-13_14h10.46.160,id,2022.2.3,None,3,0
sound,pal,peak,5,image1/pal_foot.png,image2/pal_shade.png,1,26,26,14,1417.034877,1417.034877,1417.380256,1417.368747,k,2.867259083,F07,Female,20,2023-02-13_14h10.46.160,id,2022.2.3,None,3,0
sound,kan,peak,4,image1/kan_taste.png,image2/kan_liver.png,1,31,31,3,1433.532339,1433.532339,1433.846918,1433.836471,k,3.031979458,F07,Female,20,2023-02-13_14h10.46.160,id,2022.2.3,None,3,0
sound,pal,peak,1,image1/pal_foot.png,image2/pal_shade.png,1,32,32,10,1437.031646,1437.031646,1437.380361,1437.367945,k,2.849377166,F07,Female,20,2023-02-13_14h10.46.160,id,2022.2.3,None,3,0
sound,pam,peak,4,image1/pam_night.png,image2/pam_chestnut.png,1,33,33,8,1440.386834,1440.386834,1440.730654,1440.719015,k,2.825333875,F07,Female,20,2023-02-13_14h10.46.160,id,2022.2.3,None,3,0
sound,kan,peak,1,image1/kan_taste.png,image2/kan_liver.png,1,36,36,0,1450.192712,1450.192712,1450.513825,1450.503369,d,2.932669208,F07,Female,20,2023-02-13_14h10.46.160,id,2022.2.3,None,3,1
sound,pal,peak,3,image1/pal_foot.png,image2/pal_shade.png,1,43,43,12,1474.777046,1474.777046,1475.130691,1475.118396,k,3.353053458,F07,Female,20,2023-02-13_14h10.46.160,id,2022.2.3,None,3,0
sound,pam,peak,2,image1/pam_night.png,image2/pam_chestnut.png,1,47,47,6,1488.9499,1488.9499,1489.284851,1489.280661,k,2.921464833,F07,Female,20,2023-02-13_14h10.46.160,id,2022.2.3,None,3,0
sound,kan,peak,5,image1/kan_taste.png,image2/kan_liver.png,1,53,53,4,1509.815739,1509.815739,1510.147384,1510.135025,k,2.691125458,F07,Female,20,2023-02-13_14h10.46.160,id,2022.2.3,None,3,0
sound,kan,peak,3,image1/kan_taste.png,image2/kan_liver.png,1,56,56,2,1519.705191,1519.705191,1520.018296,1520.014137,d,4.187456416,F07,Female,20,2023-02-13_14h10.46.160,id,2022.2.3,None,3,1
sound,pal,peak,2,image1/pal_foot.png,image2/pal_shade.png,1,59,59,11,1530.679851,1530.679851,1531.030943,1531.019302,k,2.662054916,F07,Female,20,2023-02-13_14h10.46.160,id,2022.2.3,None,3,0
sound,pam,peak,3,image1/pam_night.png,image2/pam_chestnut.png,1,64,64,7,1549.317771,1549.317771,1549.652822,1549.647661,k,4.274073958,F07,Female,20,2023-02-13_14h10.46.160,id,2022.2.3,None,3,0
sound,kan,peak,2,image1/kan_taste.png,image2/kan_liver.png,1,71,71,1,1580.238379,1580.238379,1580.54787,1580.535295,d,5.364384125,F07,Female,20,2023-02-13_14h10.46.160,id,2022.2.3,None,3,1
sound,kan,peak,3,image1/kan_taste.png,image2/kan_liver.png,1,0,0,2,1625.191453,1625.191453,1625.514508,1625.502121,d,4.765985499,F07,Female,20,2023-02-13_14h10.46.160,id,2022.2.3,None,4,1
sound,pam,peak,1,image1/pam_night.png,image2/pam_chestnut.png,1,8,8,5,1659.252921,1659.252921,1659.585433,1659.581312,k,3.128696666,F07,Female,20,2023-02-13_14h10.46.160,id,2022.2.3,None,4,0
sound,kan,peak,2,image1/kan_taste.png,image2/kan_liver.png,1,11,11,1,1669.289285,1669.289285,1669.598088,1669.585707,k,3.542994458,F07,Female,20,2023-02-13_14h10.46.160,id,2022.2.3,None,4,0
sound,pal,peak,5,image1/pal_foot.png,image2/pal_shade.png,1,30,30,14,1734.307733,1734.307733,1734.648517,1734.637908,k,2.988048458,F07,Female,20,2023-02-13_14h10.46.160,id,2022.2.3,None,4,0
sound,kan,peak,4,image1/kan_taste.png,image2/kan_liver.png,1,36,36,3,1756.089198,1756.089198,1756.398674,1756.386909,k,2.658481458,F07,Female,20,2023-02-13_14h10.46.160,id,2022.2.3,None,4,0
sound,pal,peak,2,image1/pal_foot.png,image2/pal_shade.png,1,41,41,11,1777.827865,1777.827865,1778.181952,1778.1697,k,3.1555615,F07,Female,20,2023-02-13_14h10.46.160,id,2022.2.3,None,4,0
sound,pal,peak,1,image1/pal_foot.png,image2/pal_shade.png,1,42,42,10,1781.480814,1781.480814,1781.832092,1781.819532,k,3.028606458,F07,Female,20,2023-02-13_14h10.46.160,id,2022.2.3,None,4,0
sound,kan,peak,5,image1/kan_taste.png,image2/kan_liver.png,1,50,50,4,1810.166506,1810.166506,1810.482378,1810.470003,k,2.734447208,F07,Female,20,2023-02-13_14h10.46.160,id,2022.2.3,None,4,0
sound,pal,peak,3,image1/pal_foot.png,image2/pal_shade.png,1,54,54,12,1823.539749,1823.539749,1823.882235,1823.869985,k,3.270008333,F07,Female,20,2023-02-13_14h10.46.160,id,2022.2.3,None,4,0
sound,pam,peak,3,image1/pam_night.png,image2/pam_chestnut.png,1,57,57,7,1836.091121,1836.091121,1836.432465,1836.42011,d,3.888998625,F07,Female,20,2023-02-13_14h10.46.160,id,2022.2.3,None,4,1
sound,pam,peak,5,image1/pam_night.png,image2/pam_chestnut.png,1,59,59,9,1843.979248,1843.979248,1844.332701,1844.321275,k,2.867632292,F07,Female,20,2023-02-13_14h10.46.160,id,2022.2.3,None,4,0
sound,pam,peak,2,image1/pam_night.png,image2/pam_chestnut.png,1,65,65,6,1864.378388,1864.378388,1864.732639,1864.720921,k,2.670484041,F07,Female,20,2023-02-13_14h10.46.160,id,2022.2.3,None,4,0
sound,kan,peak,1,image1/kan_taste.png,image2/kan_liver.png,1,68,68,0,1875.240833,1875.240833,1875.549248,1875.537706,k,2.873507125,F07,Female,20,2023-02-13_14h10.46.160,id,2022.2.3,None,4,0
sound,pam,peak,4,image1/pam_night.png,image2/pam_chestnut.png,1,69,69,8,1878.5857800000001,1878.5857800000001,1878.92128,1878.915775,k,2.843244541,F07,Female,20,2023-02-13_14h10.46.160,id,2022.2.3,None,4,0
sound,pal,peak,4,image1/pal_foot.png,image2/pal_shade.png,1,73,73,13,1891.994761,1891.994761,1892.332516,1892.320719,k,2.683912875,F07,Female,20,2023-02-13_14h10.46.160,id,2022.2.3,None,4,0
sound,kan,peak,2,image1/kan_taste.png,image2/kan_liver.png,1,3,3,1,169.4007088,169.4007088,169.7095039,169.6974353,k,3.723328957,M10,Male,23,2023-02-13_15h54.34.633,id,2022.2.3,None,1,0
sound,kan,peak,3,image1/kan_taste.png,image2/kan_liver.png,1,16,16,2,225.2006988,225.2006988,225.5096178,225.498119,k,3.278327333,M10,Male,23,2023-02-13_15h54.34.633,id,2022.2.3,None,1,0
sound,pam,peak,4,image1/pam_night.png,image2/pam_chestnut.png,1,17,17,8,228.9450738,228.9450738,229.2762556,229.2654009,k,3.179094874,M10,Male,23,2023-02-13_15h54.34.633,id,2022.2.3,None,1,0
sound,pal,peak,1,image1/pal_foot.png,image2/pal_shade.png,1,19,19,10,236.5685452,236.5685452,236.9098641,236.8975959,k,2.612592458,M10,Male,23,2023-02-13_15h54.34.633,id,2022.2.3,None,1,0
sound,pal,peak,2,image1/pal_foot.png,image2/pal_shade.png,1,20,20,11,239.6624076,239.6624076,240.026223,240.0136776,k,3.122555124,M10,Male,23,2023-02-13_15h54.34.633,id,2022.2.3,None,1,0
sound,kan,peak,1,image1/kan_taste.png,image2/kan_liver.png,1,23,23,0,249.42184459999999,249.42184459999999,249.743047,249.7305302,k,9.299741666,M10,Male,23,2023-02-13_15h54.34.633,id,2022.2.3,None,1,0
sound,pam,peak,3,image1/pam_night.png,image2/pam_chestnut.png,1,27,27,7,272.067283,272.067283,272.4098506,272.397457,k,2.850403916,M10,Male,23,2023-02-13_15h54.34.633,id,2022.2.3,None,1,0
sound,pam,peak,5,image1/pam_night.png,image2/pam_chestnut.png,1,50,50,9,357.9870659,357.9870659,358.3270672,358.3145362,k,2.759440125,M10,Male,23,2023-02-13_15h54.34.633,id,2022.2.3,None,1,0
sound,pal,peak,4,image1/pal_foot.png,image2/pal_shade.png,1,55,55,13,374.6256152,374.6256152,374.9771931,374.9653917,k,3.134124874,M10,Male,23,2023-02-13_15h54.34.633,id,2022.2.3,None,1,0
sound,pam,peak,1,image1/pam_night.png,image2/pam_chestnut.png,1,58,58,5,386.2638339,386.2638339,386.5979244,386.5937444,k,2.95757125,M10,Male,23,2023-02-13_15h54.34.633,id,2022.2.3,None,1,0
sound,pal,peak,3,image1/pal_foot.png,image2/pal_shade.png,1,60,60,12,394.8798081,394.8798081,395.2271521,395.2159248,k,2.991197708,M10,Male,23,2023-02-13_15h54.34.633,id,2022.2.3,None,1,0
sound,pal,peak,5,image1/pal_foot.png,image2/pal_shade.png,1,62,62,14,401.9631931,401.9631931,402.315753,402.3106041,k,3.692241958,M10,Male,23,2023-02-13_15h54.34.633,id,2022.2.3,None,1,0
sound,pam,peak,2,image1/pam_night.png,image2/pam_chestnut.png,1,63,63,6,406.1803699,406.1803699,406.5108172,406.4983125,k,3.016505749,M10,Male,23,2023-02-13_15h54.34.633,id,2022.2.3,None,1,0
sound,kan,peak,5,image1/kan_taste.png,image2/kan_liver.png,1,66,66,4,415.9619002,415.9619002,416.2771326,416.265715,k,2.917724708,M10,Male,23,2023-02-13_15h54.34.633,id,2022.2.3,None,1,0
sound,kan,peak,4,image1/kan_taste.png,image2/kan_liver.png,1,73,73,3,438.3667005,438.3667005,438.6941427,438.6823145,k,2.793682624,M10,Male,23,2023-02-13_15h54.34.633,id,2022.2.3,None,1,0
sound,pal,peak,5,image1/pal_foot.png,image2/pal_shade.png,1,4,4,14,488.2537532,488.2537532,488.5989342,488.594291,k,2.669251375,M10,Male,23,2023-02-13_15h54.34.633,id,2022.2.3,None,2,0
sound,kan,peak,3,image1/kan_taste.png,image2/kan_liver.png,1,5,5,2,491.4514055,491.4514055,491.7775606,491.7667505,k,2.834864582,M10,Male,23,2023-02-13_15h54.34.633,id,2022.2.3,None,2,0
sound,pal,peak,1,image1/pal_foot.png,image2/pal_shade.png,1,7,7,10,498.2023197,498.2023197,498.5444335,498.5329958,k,2.827347416,M10,Male,23,2023-02-13_15h54.34.633,id,2022.2.3,None,2,0
sound,pam,peak,1,image1/pam_night.png,image2/pam_chestnut.png,1,8,8,5,501.5292202,501.5292202,501.8610442,501.8497318,k,2.891531541,M10,Male,23,2023-02-13_15h54.34.633,id,2022.2.3,None,2,0
sound,pam,peak,4,image1/pam_night.png,image2/pam_chestnut.png,1,12,12,8,514.6152263,514.6152263,514.9484752,514.9444515,k,2.983525958,M10,Male,23,2023-02-13_15h54.34.633,id,2022.2.3,None,2,0
sound,kan,peak,4,image1/kan_taste.png,image2/kan_liver.png,1,34,34,3,594.3347715,594.3347715,594.64478,594.6340923,k,2.7887895,M10,Male,23,2023-02-13_15h54.34.633,id,2022.2.3,None,2,0
sound,pal,peak,4,image1/pal_foot.png,image2/pal_shade.png,1,36,36,13,601.0238712,601.0238712,601.3664413,601.3615021,d,7.170695624,M10,Male,23,2023-02-13_15h54.34.633,id,2022.2.3,None,2,1
sound,kan,peak,5,image1/kan_taste.png,image2/kan_liver.png,1,39,39,4,616.450665,616.450665,616.7615382,616.7489307,k,4.072049625,M10,Male,23,2023-02-13_15h54.34.633,id,2022.2.3,None,2,0
sound,pam,peak,2,image1/pam_night.png,image2/pam_chestnut.png,1,45,45,6,639.5354643,639.5354643,639.8786358,639.8666188,d,5.092953791,M10,Male,23,2023-02-13_15h54.34.633,id,2022.2.3,None,2,1
sound,kan,peak,2,image1/kan_taste.png,image2/kan_liver.png,1,47,47,1,650.5147218,650.5147218,650.8283776,650.8159055,d,4.458244875,M10,Male,23,2023-02-13_15h54.34.633,id,2022.2.3,None,2,1
sound,pam,peak,3,image1/pam_night.png,image2/pam_chestnut.png,1,54,54,7,677.0479107,677.0479107,677.4120608,677.3994622,d,8.535158582,M10,Male,23,2023-02-13_15h54.34.633,id,2022.2.3,None,2,1
sound,pal,peak,2,image1/pal_foot.png,image2/pal_shade.png,1,55,55,11,686.1063307,686.1063307,686.450926,686.445434,k,3.090113166,M10,Male,23,2023-02-13_15h54.34.633,id,2022.2.3,None,2,0
sound,pam,peak,5,image1/pam_night.png,image2/pam_chestnut.png,1,67,67,9,737.4486054,737.4486054,737.7791603,737.766865,k,3.321503333,M10,Male,23,2023-02-13_15h54.34.633,id,2022.2.3,None,2,0
sound,kan,peak,1,image1/kan_taste.png,image2/kan_liver.png,1,68,68,0,741.2861856,741.2861856,741.5957958,741.583405,d,7.87251875,M10,Male,23,2023-02-13_15h54.34.633,id,2022.2.3,None,2,1
sound,pal,peak,3,image1/pal_foot.png,image2/pal_shade.png,1,72,72,12,765.2172978,765.2172978,765.5623235,765.5511406,k,3.637803083,M10,Male,23,2023-02-13_15h54.34.633,id,2022.2.3,None,2,0
sound,pal,peak,4,image1/pal_foot.png,image2/pal_shade.png,1,3,3,13,856.27218,856.27218,856.6130798,856.6005774,k,3.082089375,M10,Male,23,2023-02-13_15h54.34.633,id,2022.2.3,None,3,0
sound,pam,peak,2,image1/pam_night.png,image2/pam_chestnut.png,1,13,13,6,894.5490943,894.5490943,894.8840172,894.8796308,k,2.861020708,M10,Male,23,2023-02-13_15h54.34.633,id,2022.2.3,None,3,0
sound,pam,peak,3,image1/pam_night.png,image2/pam_chestnut.png,1,14,14,7,897.9060687,897.9060687,898.246598,898.2341187,k,2.803284333,M10,Male,23,2023-02-13_15h54.34.633,id,2022.2.3,None,3,0
sound,pam,peak,1,image1/pam_night.png,image2/pam_chestnut.png,1,18,18,5,910.6660876,910.6660876,910.9965017,910.9842812,k,3.032761916,M10,Male,23,2023-02-13_15h54.34.633,id,2022.2.3,None,3,0
sound,kan,peak,2,image1/kan_taste.png,image2/kan_liver.png,1,33,33,1,965.788065,965.788065,966.0968372,966.0843035,k,3.111734624,M10,Male,23,2023-02-13_15h54.34.633,id,2022.2.3,None,3,0
sound,kan,peak,4,image1/kan_taste.png,image2/kan_liver.png,1,38,38,3,983.3018796,983.3018796,983.617785,983.6135391,k,2.972845416,M10,Male,23,2023-02-13_15h54.34.633,id,2022.2.3,None,3,0
sound,pam,peak,4,image1/pam_night.png,image2/pam_chestnut.png,1,40,40,8,989.98282,989.98282,990.3135672,990.3026782,k,2.795494333,M10,Male,23,2023-02-13_15h54.34.633,id,2022.2.3,None,3,0
sound,pal,peak,5,image1/pal_foot.png,image2/pal_shade.png,1,41,41,14,993.2590138,993.2590138,993.613739,993.6012098,k,2.761874582,M10,Male,23,2023-02-13_15h54.34.633,id,2022.2.3,None,3,0
sound,pam,peak,5,image1/pam_night.png,image2/pam_chestnut.png,1,42,42,9,996.5320596,996.5320596,996.8685165,996.8638913,k,5.105515374,M10,Male,23,2023-02-13_15h54.34.633,id,2022.2.3,None,3,0
sound,pal,peak,2,image1/pal_foot.png,image2/pal_shade.png,1,47,47,11,1026.003986,1026.003986,1026.347143,1026.334829,k,3.091431,M10,Male,23,2023-02-13_15h54.34.633,id,2022.2.3,None,3,0
sound,pal,peak,3,image1/pal_foot.png,image2/pal_shade.png,1,50,50,12,1037.126912,1037.126912,1037.480538,1037.467949,k,4.266894249,M10,Male,23,2023-02-13_15h54.34.633,id,2022.2.3,None,3,0
sound,kan,peak,3,image1/kan_taste.png,image2/kan_liver.png,1,63,63,2,1086.803761,1086.803761,1087.114028,1087.102589,d,11.17882829,M10,Male,23,2023-02-13_15h54.34.633,id,2022.2.3,None,3,1
sound,pal,peak,1,image1/pal_foot.png,image2/pal_shade.png,1,64,64,10,1098.440841,1098.440841,1098.797501,1098.785681,k,16.34121237,M10,Male,23,2023-02-13_15h54.34.633,id,2022.2.3,None,3,0
sound,kan,peak,1,image1/kan_taste.png,image2/kan_liver.png,1,67,67,0,1121.810317,1121.810317,1122.131052,1122.118728,k,5.203769875,M10,Male,23,2023-02-13_15h54.34.633,id,2022.2.3,None,3,0
sound,kan,peak,5,image1/kan_taste.png,image2/kan_liver.png,1,69,69,4,1130.966717,1130.966717,1131.280957,1131.268417,d,7.930854708,M10,Male,23,2023-02-13_15h54.34.633,id,2022.2.3,None,3,1
sound,pal,peak,4,image1/pal_foot.png,image2/pal_shade.png,1,4,4,13,1204.630799,1204.630799,1204.981339,1204.969584,k,4.042729041,M10,Male,23,2023-02-13_15h54.34.633,id,2022.2.3,None,4,0
sound,pam,peak,3,image1/pam_night.png,image2/pam_chestnut.png,1,8,8,7,1220.268229,1220.268229,1220.598196,1220.586773,d,9.280779791,M10,Male,23,2023-02-13_15h54.34.633,id,2022.2.3,None,4,1
sound,pal,peak,3,image1/pal_foot.png,image2/pal_shade.png,1,12,12,12,1240.89348,1240.89348,1241.235744,1241.231503,k,3.724653458,M10,Male,23,2023-02-13_15h54.34.633,id,2022.2.3,None,4,0
sound,pam,peak,1,image1/pam_night.png,image2/pam_chestnut.png,1,29,29,5,1309.939152,1309.939152,1310.281892,1310.269346,d,4.753761416,M10,Male,23,2023-02-13_15h54.34.633,id,2022.2.3,None,4,1
sound,pam,peak,5,image1/pam_night.png,image2/pam_chestnut.png,1,30,30,9,1315.190826,1315.190826,1315.532085,1315.519568,k,5.692069749,M10,Male,23,2023-02-13_15h54.34.633,id,2022.2.3,None,4,0
sound,kan,peak,3,image1/kan_taste.png,image2/kan_liver.png,1,39,39,2,1351.005211,1351.005211,1351.315319,1351.303968,d,12.02254304,M10,Male,23,2023-02-13_15h54.34.633,id,2022.2.3,None,4,1
sound,pal,peak,1,image1/pal_foot.png,image2/pal_shade.png,1,42,42,10,1370.824801,1370.824801,1371.165284,1371.154431,k,3.069300957,M10,Male,23,2023-02-13_15h54.34.633,id,2022.2.3,None,4,0
sound,kan,peak,5,image1/kan_taste.png,image2/kan_liver.png,1,46,46,4,1383.659999,1383.659999,1383.98234,1383.97048,k,3.647169541,M10,Male,23,2023-02-13_15h54.34.633,id,2022.2.3,None,4,0
sound,pal,peak,5,image1/pal_foot.png,image2/pal_shade.png,1,48,48,14,1392.335001,1392.335001,1392.682225,1392.671412,k,3.419174291,M10,Male,23,2023-02-13_15h54.34.633,id,2022.2.3,None,4,0
sound,kan,peak,1,image1/kan_taste.png,image2/kan_liver.png,1,52,52,0,1406.890063,1406.890063,1407.203185,1407.198885,k,3.538413541,M10,Male,23,2023-02-13_15h54.34.633,id,2022.2.3,None,4,0
sound,pam,peak,4,image1/pam_night.png,image2/pam_chestnut.png,1,58,58,8,1430.268776,1430.268776,1430.599165,1430.58656,k,3.081851041,M10,Male,23,2023-02-13_15h54.34.633,id,2022.2.3,None,4,0
sound,pal,peak,2,image1/pal_foot.png,image2/pal_shade.png,1,61,61,11,1440.906921,1440.906921,1441.253872,1441.248999,k,3.209083333,M10,Male,23,2023-02-13_15h54.34.633,id,2022.2.3,None,4,0
sound,pam,peak,2,image1/pam_night.png,image2/pam_chestnut.png,1,63,63,6,1447.835668,1447.835668,1448.165739,1448.153241,k,5.508096124,M10,Male,23,2023-02-13_15h54.34.633,id,2022.2.3,None,4,0
sound,kan,peak,2,image1/kan_taste.png,image2/kan_liver.png,1,65,65,1,1457.243363,1457.243363,1457.565676,1457.554814,d,7.907619666,M10,Male,23,2023-02-13_15h54.34.633,id,2022.2.3,None,4,1
sound,kan,peak,4,image1/kan_taste.png,image2/kan_liver.png,1,71,71,3,1482.18517,1482.18517,1482.499127,1482.487887,k,6.081749249,M10,Male,23,2023-02-13_15h54.34.633,id,2022.2.3,None,4,0
sound,kan,peak,3,image1/kan_taste.png,image2/kan_liver.png,1,1,1,2,225.8457902,225.8457902,226.1550023,226.142363,d,4.704053458,F08,Female,21,2023-02-14_14h21.02.079,id,2022.2.3,None,1,1
sound,pal,peak,3,image1/pal_foot.png,image2/pal_shade.png,1,7,7,12,255.0316218,255.0316218,255.3715428,255.3606376,d,3.3656375,F08,Female,21,2023-02-14_14h21.02.079,id,2022.2.3,None,1,1
sound,pam,peak,1,image1/pam_night.png,image2/pam_chestnut.png,1,10,10,5,266.7468827,266.7468827,267.0883376,267.0758683,d,5.784288541,F08,Female,21,2023-02-14_14h21.02.079,id,2022.2.3,None,1,1
sound,pal,peak,2,image1/pal_foot.png,image2/pal_shade.png,1,23,23,11,323.7974725,323.7974725,324.1385944,324.126866,k,3.728319875,F08,Female,21,2023-02-14_14h21.02.079,id,2022.2.3,None,1,0
sound,pal,peak,1,image1/pal_foot.png,image2/pal_shade.png,1,24,24,10,328.0026285,328.0026285,328.3553591,328.3429695,d,3.109258208,F08,Female,21,2023-02-14_14h21.02.079,id,2022.2.3,None,1,1
sound,pam,peak,3,image1/pam_night.png,image2/pam_chestnut.png,1,27,27,7,339.164275,339.164275,339.5051849,339.4927715,k,3.101160958,F08,Female,21,2023-02-14_14h21.02.079,id,2022.2.3,None,1,0
sound,kan,peak,2,image1/kan_taste.png,image2/kan_liver.png,1,29,29,1,346.2250535,346.2250535,346.5386343,346.5267237,d,3.171034958,F08,Female,21,2023-02-14_14h21.02.079,id,2022.2.3,None,1,1
sound,kan,peak,1,image1/kan_taste.png,image2/kan_liver.png,1,35,35,0,369.0515745,369.0515745,369.3720336,369.3598668,k,3.124150958,F08,Female,21,2023-02-14_14h21.02.079,id,2022.2.3,None,1,0
sound,pal,peak,5,image1/pal_foot.png,image2/pal_shade.png,1,45,45,14,405.931755,405.931755,406.2724429,406.2599492,k,3.243633875,F08,Female,21,2023-02-14_14h21.02.079,id,2022.2.3,None,1,0
sound,kan,peak,5,image1/kan_taste.png,image2/kan_liver.png,1,48,48,4,416.7617785,416.7617785,417.0767932,417.0724106,k,5.263313833,F08,Female,21,2023-02-14_14h21.02.079,id,2022.2.3,None,1,0
sound,pam,peak,2,image1/pam_night.png,image2/pam_chestnut.png,1,51,51,6,429.8480105,429.8480105,430.1889839,430.1777802,k,3.296554291,F08,Female,21,2023-02-14_14h21.02.079,id,2022.2.3,None,1,0
sound,pal,peak,4,image1/pal_foot.png,image2/pal_shade.png,1,52,52,13,433.637622,433.637622,433.9889769,433.9775725,d,3.756760875,F08,Female,21,2023-02-14_14h21.02.079,id,2022.2.3,None,1,1
sound,pam,peak,5,image1/pam_night.png,image2/pam_chestnut.png,1,53,53,9,437.9069113,437.9069113,438.2389988,438.2265158,k,3.861350291,F08,Female,21,2023-02-14_14h21.02.079,id,2022.2.3,None,1,0
sound,kan,peak,4,image1/kan_taste.png,image2/kan_liver.png,1,63,63,3,475.3070435,475.3070435,475.6391586,475.6270127,k,3.119639375,F08,Female,21,2023-02-14_14h21.02.079,id,2022.2.3,None,1,0
sound,pam,peak,4,image1/pam_night.png,image2/pam_chestnut.png,1,70,70,8,502.2242682,502.2242682,502.5726317,502.5604374,k,3.31876375,F08,Female,21,2023-02-14_14h21.02.079,id,2022.2.3,None,1,0
sound,kan,peak,4,image1/kan_taste.png,image2/kan_liver.png,1,6,6,3,573.2455067,573.2455067,573.5603162,573.5562304,k,3.304837083,F08,Female,21,2023-02-14_14h21.02.079,id,2022.2.3,None,2,0
sound,pal,peak,5,image1/pal_foot.png,image2/pal_shade.png,1,10,10,14,587.4028706,587.4028706,587.7565141,587.7447925,k,3.032959874,F08,Female,21,2023-02-14_14h21.02.079,id,2022.2.3,None,2,0
sound,pam,peak,5,image1/pam_night.png,image2/pam_chestnut.png,1,13,13,9,597.5766929,597.5766929,597.9065907,597.894021,k,2.82044575,F08,Female,21,2023-02-14_14h21.02.079,id,2022.2.3,None,2,0
sound,pal,peak,1,image1/pal_foot.png,image2/pal_shade.png,1,14,14,10,600.8815095,600.8815095,601.2232254,601.2116035,k,2.896743625,F08,Female,21,2023-02-14_14h21.02.079,id,2022.2.3,None,2,0
sound,pam,peak,1,image1/pam_night.png,image2/pam_chestnut.png,1,16,16,5,607.1755941,607.1755941,607.5067372,607.4941101,d,3.026281541,F08,Female,21,2023-02-14_14h21.02.079,id,2022.2.3,None,2,1
sound,pam,peak,4,image1/pam_night.png,image2/pam_chestnut.png,1,20,20,8,620.72431,620.72431,621.056734,621.0442142,k,2.486608875,F08,Female,21,2023-02-14_14h21.02.079,id,2022.2.3,None,2,0
sound,kan,peak,1,image1/kan_taste.png,image2/kan_liver.png,1,29,29,0,651.0976023,651.0976023,651.4119185,651.4067831,k,3.128840667,F08,Female,21,2023-02-14_14h21.02.079,id,2022.2.3,None,2,0
sound,pam,peak,3,image1/pam_night.png,image2/pam_chestnut.png,1,32,32,7,661.8093622,661.8093622,662.1400457,662.1275685,k,3.820239291,F08,Female,21,2023-02-14_14h21.02.079,id,2022.2.3,None,2,0
sound,kan,peak,2,image1/kan_taste.png,image2/kan_liver.png,1,34,34,1,669.4649135,669.4649135,669.7735729,669.7609546,d,2.885616542,F08,Female,21,2023-02-14_14h21.02.079,id,2022.2.3,None,2,1
sound,kan,peak,5,image1/kan_taste.png,image2/kan_liver.png,1,35,35,4,672.8369296,672.8369296,673.1572272,673.1454116,k,2.998144583,F08,Female,21,2023-02-14_14h21.02.079,id,2022.2.3,None,2,0
sound,pam,peak,2,image1/pam_night.png,image2/pam_chestnut.png,1,43,43,6,699.5442685,699.5442685,699.873623,699.8626933,k,3.755033708,F08,Female,21,2023-02-14_14h21.02.079,id,2022.2.3,None,2,0
sound,pal,peak,3,image1/pal_foot.png,image2/pal_shade.png,1,58,58,12,750.516258,750.516258,750.8571337,750.8453793,k,2.743347083,F08,Female,21,2023-02-14_14h21.02.079,id,2022.2.3,None,2,0
sound,pal,peak,2,image1/pal_foot.png,image2/pal_shade.png,1,60,60,11,757.1043654,757.1043654,757.4571273,757.4462795,k,2.632209041,F08,Female,21,2023-02-14_14h21.02.079,id,2022.2.3,None,2,0
sound,pal,peak,4,image1/pal_foot.png,image2/pal_shade.png,1,61,61,13,760.2246796,760.2246796,760.5906076,760.57936,k,2.622102333,F08,Female,21,2023-02-14_14h21.02.079,id,2022.2.3,None,2,0
sound,kan,peak,3,image1/kan_taste.png,image2/kan_liver.png,1,74,74,2,803.3322578,803.3322578,803.6408883,803.6299837,k,3.059946208,F08,Female,21,2023-02-14_14h21.02.079,id,2022.2.3,None,2,0
sound,pam,peak,3,image1/pam_night.png,image2/pam_chestnut.png,1,6,6,7,829.4611359,829.4611359,829.7958582,829.7911359,k,3.040963666,F08,Female,21,2023-02-14_14h21.02.079,id,2022.2.3,None,3,0
sound,kan,peak,1,image1/kan_taste.png,image2/kan_liver.png,1,10,10,0,842.6510362,842.6510362,842.9625074,842.9576533,k,2.68809375,F08,Female,21,2023-02-14_14h21.02.079,id,2022.2.3,None,3,0
sound,kan,peak,2,image1/kan_taste.png,image2/kan_liver.png,1,12,12,1,848.8941399,848.8941399,849.2077591,849.1952205,k,4.642625208,F08,Female,21,2023-02-14_14h21.02.079,id,2022.2.3,None,3,0
sound,pal,peak,5,image1/pal_foot.png,image2/pal_shade.png,1,16,16,14,864.284128,864.284128,864.6243549,864.6118698,k,3.955442541,F08,Female,21,2023-02-14_14h21.02.079,id,2022.2.3,None,3,0
sound,pal,peak,2,image1/pal_foot.png,image2/pal_shade.png,1,17,17,11,868.7231523,868.7231523,869.0745075,869.062008,k,3.755032916,F08,Female,21,2023-02-14_14h21.02.079,id,2022.2.3,None,3,0
sound,pam,peak,2,image1/pam_night.png,image2/pam_chestnut.png,1,18,18,6,872.9937967,872.9937967,873.3246032,873.312279,d,2.97875975,F08,Female,21,2023-02-14_14h21.02.079,id,2022.2.3,None,3,1
sound,pam,peak,1,image1/pam_night.png,image2/pam_chestnut.png,1,22,22,5,886.4117742,886.4117742,886.7414475,886.7288683,k,3.086649999,F08,Female,21,2023-02-14_14h21.02.079,id,2022.2.3,None,3,0
sound,kan,peak,4,image1/kan_taste.png,image2/kan_liver.png,1,34,34,3,928.2117165,928.2117165,928.5249326,928.5124241,k,2.704688125,F08,Female,21,2023-02-14_14h21.02.079,id,2022.2.3,None,3,0
sound,pal,peak,1,image1/pal_foot.png,image2/pal_shade.png,1,36,36,10,934.6339689,934.6339689,934.9748555,934.963612,k,2.936460417,F08,Female,21,2023-02-14_14h21.02.079,id,2022.2.3,None,3,0
sound,pam,peak,5,image1/pam_night.png,image2/pam_chestnut.png,1,37,37,9,938.0789396,938.0789396,938.4121582,938.4081024,k,2.667780416,F08,Female,21,2023-02-14_14h21.02.079,id,2022.2.3,None,3,0
sound,pam,peak,4,image1/pam_night.png,image2/pam_chestnut.png,1,43,43,8,959.5518831,959.5518831,959.8914429,959.8790561,k,2.530943625,F08,Female,21,2023-02-14_14h21.02.079,id,2022.2.3,None,3,0
sound,pal,peak,3,image1/pal_foot.png,image2/pal_shade.png,1,51,51,12,985.1176745,985.1176745,985.4626861,985.4583998,k,2.708766,F08,Female,21,2023-02-14_14h21.02.079,id,2022.2.3,None,3,0
sound,kan,peak,3,image1/kan_taste.png,image2/kan_liver.png,1,54,54,2,995.4599674,995.4599674,995.7749607,995.7632512,k,2.944631458,F08,Female,21,2023-02-14_14h21.02.079,id,2022.2.3,None,3,0
sound,kan,peak,5,image1/kan_taste.png,image2/kan_liver.png,1,66,66,4,1037.899403,1037.899403,1038.225185,1038.212724,k,2.839800167,F08,Female,21,2023-02-14_14h21.02.079,id,2022.2.3,None,3,0
sound,pal,peak,4,image1/pal_foot.png,image2/pal_shade.png,1,70,70,13,1051.033432,1051.033432,1051.380454,1051.375538,k,2.523641208,F08,Female,21,2023-02-14_14h21.02.079,id,2022.2.3,None,3,0
sound,pam,peak,2,image1/pam_night.png,image2/pam_chestnut.png,1,5,5,6,1112.234018,1112.234018,1112.575784,1112.563848,k,2.790028333,F08,Female,21,2023-02-14_14h21.02.079,id,2022.2.3,None,4,0
sound,kan,peak,2,image1/kan_taste.png,image2/kan_liver.png,1,9,9,1,1125.616572,1125.616572,1125.925956,1125.913411,k,2.801044458,F08,Female,21,2023-02-14_14h21.02.079,id,2022.2.3,None,4,0
sound,kan,peak,1,image1/kan_taste.png,image2/kan_liver.png,1,10,10,0,1128.905246,1128.905246,1129.229744,1129.225535,k,2.607758083,F08,Female,21,2023-02-14_14h21.02.079,id,2022.2.3,None,4,0
sound,pam,peak,4,image1/pam_night.png,image2/pam_chestnut.png,1,13,13,8,1138.112869,1138.112869,1138.44225,1138.430865,k,2.752153916,F08,Female,21,2023-02-14_14h21.02.079,id,2022.2.3,None,4,0
sound,pam,peak,1,image1/pam_night.png,image2/pam_chestnut.png,1,14,14,5,1141.35204,1141.35204,1141.696306,1141.692354,k,2.373579583,F08,Female,21,2023-02-14_14h21.02.079,id,2022.2.3,None,4,0
sound,kan,peak,4,image1/kan_taste.png,image2/kan_liver.png,1,23,23,3,1168.277401,1168.277401,1168.59702,1168.592615,k,2.595718625,F08,Female,21,2023-02-14_14h21.02.079,id,2022.2.3,None,4,0
sound,pal,peak,3,image1/pal_foot.png,image2/pal_shade.png,1,33,33,12,1201.452724,1201.452724,1201.79266,1201.780889,k,3.199414666,F08,Female,21,2023-02-14_14h21.02.079,id,2022.2.3,None,4,0
sound,pam,peak,5,image1/pam_night.png,image2/pam_chestnut.png,1,40,40,9,1224.483077,1224.483077,1224.825983,1224.813382,k,2.977404083,F08,Female,21,2023-02-14_14h21.02.079,id,2022.2.3,None,4,0
sound,kan,peak,5,image1/kan_taste.png,image2/kan_liver.png,1,60,60,4,1286.90173,1286.90173,1287.209821,1287.197311,k,2.695611749,F08,Female,21,2023-02-14_14h21.02.079,id,2022.2.3,None,4,0
sound,pal,peak,2,image1/pal_foot.png,image2/pal_shade.png,1,62,62,11,1293.308119,1293.308119,1293.663819,1293.659841,k,2.745066708,F08,Female,21,2023-02-14_14h21.02.079,id,2022.2.3,None,4,0
sound,pam,peak,3,image1/pam_night.png,image2/pam_chestnut.png,1,63,63,7,1296.579318,1296.579318,1296.909889,1296.897648,k,2.703062958,F08,Female,21,2023-02-14_14h21.02.079,id,2022.2.3,None,4,0
sound,kan,peak,3,image1/kan_taste.png,image2/kan_liver.png,1,66,66,2,1306.129296,1306.129296,1306.443166,1306.431715,k,2.694671666,F08,Female,21,2023-02-14_14h21.02.079,id,2022.2.3,None,4,0
sound,pal,peak,1,image1/pal_foot.png,image2/pal_shade.png,1,68,68,10,1312.317485,1312.317485,1312.66403,1312.659858,k,2.641456625,F08,Female,21,2023-02-14_14h21.02.079,id,2022.2.3,None,4,0
sound,pal,peak,5,image1/pal_foot.png,image2/pal_shade.png,1,69,69,14,1315.458912,1315.458912,1315.809958,1315.799642,k,2.493602292,F08,Female,21,2023-02-14_14h21.02.079,id,2022.2.3,None,4,0
sound,pal,peak,4,image1/pal_foot.png,image2/pal_shade.png,1,70,70,13,1318.440678,1318.440678,1318.793454,1318.7809,k,2.530185791,F08,Female,21,2023-02-14_14h21.02.079,id,2022.2.3,None,4,0
sound,pam,peak,3,image1/pam_night.png,image2/pam_chestnut.png,1,5,5,7,1028.331481,1028.331481,1028.669184,1028.656805,d,11.83078633,F09,Female,21,2023-02-14_17h10.24.186,id,2022.2.3,None,1,1
sound,pal,peak,5,image1/pal_foot.png,image2/pal_shade.png,1,15,15,14,1117.740341,1117.740341,1118.086297,1118.073866,k,9.216340541,F09,Female,21,2023-02-14_17h10.24.186,id,2022.2.3,None,1,0
sound,pam,peak,5,image1/pam_night.png,image2/pam_chestnut.png,1,19,19,9,1143.526213,1143.526213,1143.858176,1143.853312,k,4.566698499,F09,Female,21,2023-02-14_17h10.24.186,id,2022.2.3,None,1,0
sound,kan,peak,2,image1/kan_taste.png,image2/kan_liver.png,1,25,25,1,1166.02308,1166.02308,1166.336523,1166.323935,d,7.082718333,F09,Female,21,2023-02-14_17h10.24.186,id,2022.2.3,None,1,1
sound,kan,peak,4,image1/kan_taste.png,image2/kan_liver.png,1,29,29,3,1195.445847,1195.445847,1195.75361,1195.741885,k,16.57029054,F09,Female,21,2023-02-14_17h10.24.186,id,2022.2.3,None,1,0
sound,kan,peak,5,image1/kan_taste.png,image2/kan_liver.png,1,30,30,4,1212.501391,1212.501391,1212.82437,1212.820412,k,2.815728124,F09,Female,21,2023-02-14_17h10.24.186,id,2022.2.3,None,1,0
sound,pal,peak,2,image1/pal_foot.png,image2/pal_shade.png,1,32,32,11,1219.502989,1219.502989,1219.8584,1219.85365,k,4.208425416,F09,Female,21,2023-02-14_17h10.24.186,id,2022.2.3,None,1,0
sound,pam,peak,4,image1/pam_night.png,image2/pam_chestnut.png,1,34,34,8,1227.690756,1227.690756,1228.020054,1228.007589,k,8.341897999,F09,Female,21,2023-02-14_17h10.24.186,id,2022.2.3,None,1,0
sound,pam,peak,2,image1/pam_night.png,image2/pam_chestnut.png,1,36,36,6,1240.189091,1240.189091,1240.524696,1240.52027,k,5.452108416,F09,Female,21,2023-02-14_17h10.24.186,id,2022.2.3,None,1,0
sound,pal,peak,3,image1/pal_foot.png,image2/pal_shade.png,1,37,37,12,1246.13399,1246.13399,1246.476534,1246.470226,k,9.636630291,F09,Female,21,2023-02-14_17h10.24.186,id,2022.2.3,None,1,0
sound,pal,peak,4,image1/pal_foot.png,image2/pal_shade.png,1,44,44,13,1291.03344,1291.03344,1291.387466,1291.374979,k,3.724084291,F09,Female,21,2023-02-14_17h10.24.186,id,2022.2.3,None,1,0
sound,pal,peak,1,image1/pal_foot.png,image2/pal_shade.png,1,56,56,10,1358.865803,1358.865803,1359.220816,1359.208568,k,4.923518541,F09,Female,21,2023-02-14_17h10.24.186,id,2022.2.3,None,1,0
sound,pam,peak,1,image1/pam_night.png,image2/pam_chestnut.png,1,58,58,5,1373.240231,1373.240231,1373.571094,1373.559274,k,3.980193041,F09,Female,21,2023-02-14_17h10.24.186,id,2022.2.3,None,1,0
sound,kan,peak,3,image1/kan_taste.png,image2/kan_liver.png,1,68,68,2,1422.005553,1422.005553,1422.321284,1422.308708,k,3.835851083,F09,Female,21,2023-02-14_17h10.24.186,id,2022.2.3,None,1,0
sound,kan,peak,1,image1/kan_taste.png,image2/kan_liver.png,1,73,73,0,1448.200613,1448.200613,1448.52135,1448.508864,k,18.63568775,F09,Female,21,2023-02-14_17h10.24.186,id,2022.2.3,None,1,0
sound,kan,peak,2,image1/kan_taste.png,image2/kan_liver.png,1,2,2,1,1510.933251,1510.933251,1511.238368,1511.225759,k,4.215875833,F09,Female,21,2023-02-14_17h10.24.186,id,2022.2.3,None,2,0
sound,kan,peak,4,image1/kan_taste.png,image2/kan_liver.png,1,3,3,3,1515.621711,1515.621711,1515.955137,1515.942901,k,3.490545916,F09,Female,21,2023-02-14_17h10.24.186,id,2022.2.3,None,2,0
sound,pam,peak,5,image1/pam_night.png,image2/pam_chestnut.png,1,14,14,9,1564.622576,1564.622576,1564.955267,1564.943615,d,7.1856585,F09,Female,21,2023-02-14_17h10.24.186,id,2022.2.3,None,2,1
sound,pal,peak,1,image1/pal_foot.png,image2/pal_shade.png,1,22,22,10,1598.136346,1598.136346,1598.488958,1598.476712,k,3.851612874,F09,Female,21,2023-02-14_17h10.24.186,id,2022.2.3,None,2,0
sound,pal,peak,4,image1/pal_foot.png,image2/pal_shade.png,1,27,27,13,1615.880179,1615.880179,1616.226898,1616.222209,d,11.07335304,F09,Female,21,2023-02-14_17h10.24.186,id,2022.2.3,None,2,1
sound,pal,peak,5,image1/pal_foot.png,image2/pal_shade.png,1,35,35,14,1655.143234,1655.143234,1655.489082,1655.476666,k,3.0098425,F09,Female,21,2023-02-14_17h10.24.186,id,2022.2.3,None,2,0
sound,pam,peak,3,image1/pam_night.png,image2/pam_chestnut.png,1,38,38,7,1671.26462,1671.26462,1671.610792,1671.605706,k,3.149494416,F09,Female,21,2023-02-14_17h10.24.186,id,2022.2.3,None,2,0
sound,kan,peak,3,image1/kan_taste.png,image2/kan_liver.png,1,41,41,2,1681.309002,1681.309002,1681.622676,1681.61013,k,3.300891416,F09,Female,21,2023-02-14_17h10.24.186,id,2022.2.3,None,2,0
sound,pam,peak,2,image1/pam_night.png,image2/pam_chestnut.png,1,42,42,6,1685.0918590000001,1685.0918590000001,1685.422662,1685.409993,d,9.240072957,F09,Female,21,2023-02-14_17h10.24.186,id,2022.2.3,None,2,1
sound,pal,peak,2,image1/pal_foot.png,image2/pal_shade.png,1,44,44,11,1699.248454,1699.248454,1699.59335,1699.589133,k,3.427379374,F09,Female,21,2023-02-14_17h10.24.186,id,2022.2.3,None,2,0
sound,kan,peak,5,image1/kan_taste.png,image2/kan_liver.png,1,51,51,4,1725.245224,1725.245224,1725.556114,1725.543529,k,2.994378374,F09,Female,21,2023-02-14_17h10.24.186,id,2022.2.3,None,2,0
sound,pal,peak,3,image1/pal_foot.png,image2/pal_shade.png,1,59,59,12,1755.731448,1755.731448,1756.072967,1756.062045,d,12.62842517,F09,Female,21,2023-02-14_17h10.24.186,id,2022.2.3,None,2,1
sound,pam,peak,1,image1/pam_night.png,image2/pam_chestnut.png,1,67,67,5,1799.475363,1799.475363,1799.810939,1799.806549,k,3.744457333,F09,Female,21,2023-02-14_17h10.24.186,id,2022.2.3,None,2,0
sound,pam,peak,4,image1/pam_night.png,image2/pam_chestnut.png,1,68,68,8,1803.714227,1803.714227,1804.056419,1804.043884,k,3.045053833,F09,Female,21,2023-02-14_17h10.24.186,id,2022.2.3,None,2,0
sound,kan,peak,1,image1/kan_taste.png,image2/kan_liver.png,1,69,69,0,1807.278544,1807.278544,1807.589677,1807.578367,k,6.304997124,F09,Female,21,2023-02-14_17h10.24.186,id,2022.2.3,None,2,0
sound,pam,peak,2,image1/pam_night.png,image2/pam_chestnut.png,1,1,1,6,1846.851367,1846.851367,1847.178766,1847.173239,k,3.400985916,F09,Female,21,2023-02-14_17h10.24.186,id,2022.2.3,None,3,0
sound,kan,peak,4,image1/kan_taste.png,image2/kan_liver.png,1,3,3,3,1854.83152,1854.83152,1855.14423,1855.139914,k,14.94179871,F09,Female,21,2023-02-14_17h10.24.186,id,2022.2.3,None,3,0
sound,kan,peak,1,image1/kan_taste.png,image2/kan_liver.png,1,11,11,0,1900.163722,1900.163722,1900.477588,1900.473285,k,3.439657249,F09,Female,21,2023-02-14_17h10.24.186,id,2022.2.3,None,3,0
sound,pal,peak,2,image1/pal_foot.png,image2/pal_shade.png,1,13,13,11,1907.299475,1907.299475,1907.644056,1907.640379,k,5.535181624,F09,Female,21,2023-02-14_17h10.24.186,id,2022.2.3,None,3,0
sound,kan,peak,2,image1/kan_taste.png,image2/kan_liver.png,1,17,17,1,1925.242109,1925.242109,1925.556904,1925.545208,k,3.557980874,F09,Female,21,2023-02-14_17h10.24.186,id,2022.2.3,None,3,0
sound,pam,peak,4,image1/pam_night.png,image2/pam_chestnut.png,1,20,20,8,1939.741655,1939.741655,1940.073658,1940.061124,k,6.027614916,F09,Female,21,2023-02-14_17h10.24.186,id,2022.2.3,None,3,0
