item1,item,factor,step,image1,image2,corrAns,main_trials_1.thisTrialN,main_trials_1.thisN,main_trials_1.thisIndex,image_4.started,image_5.started,sound_2.started,key_resp_4.started,key_resp_4.keys,key_resp_4.rt,participant,gender,age,date,expName,psychopyVersion,frameRate,rep,tone
sound,pal,shape,5,image1/pal_foot.png,image2/pal_shade.png,1,21,21,29,211.5607268,211.5607268,211.9245894,211.9247908,d,2.942565666,F02,Female,25,2023-02-07_14h42.36.892,id,2022.2.3,59.94890867,1,1
sound,pam,shape,4,image1/pam_night.png,image2/pam_chestnut.png,1,24,24,23,222.2802029,222.2802029,222.6246088,222.6251254,d,3.005846166,F02,Female,25,2023-02-07_14h42.36.892,id,2022.2.3,59.94890867,1,1
sound,pam,shape,1,image1/pam_night.png,image2/pam_chestnut.png,1,28,28,20,236.4773022,236.4773022,236.8250138,236.8250378,k,5.284104791,F02,Female,25,2023-02-07_14h42.36.892,id,2022.2.3,59.94890867,1,0
sound,pal,shape,1,image1/pal_foot.png,image2/pal_shade.png,1,29,29,25,242.2821707,242.2821707,242.6418202,242.6417745,k,2.879369125,F02,Female,25,2023-02-07_14h42.36.892,id,2022.2.3,59.94890867,1,0
sound,pal,shape,3,image1/pal_foot.png,image2/pal_shade.png,1,34,34,27,260.2286253,260.2286253,260.5751302,260.575195,d,3.145459416,F02,Female,25,2023-02-07_14h42.36.892,id,2022.2.3,59.94890867,1,1
sound,kan,shape,5,image1/kan_taste.png,image2/kan_liver.png,1,35,35,19,263.9102557,263.9102557,264.2415491,264.242062,d,2.861557124,F02,Female,25,2023-02-07_14h42.36.892,id,2022.2.3,59.94890867,1,1
sound,kan,shape,4,image1/kan_taste.png,image2/kan_liver.png,1,41,41,18,284.5797918,284.5797918,284.9081185,284.9084593,d,4.702360125,F02,Female,25,2023-02-07_14h42.36.892,id,2022.2.3,59.94890867,1,1
sound,kan,shape,3,image1/kan_taste.png,image2/kan_liver.png,1,43,43,17,293.4288452,293.4288452,293.7420402,293.7421518,k,3.828050499,F02,Female,25,2023-02-07_14h42.36.892,id,2022.2.3,59.94890867,1,0
sound,kan,shape,2,image1/kan_taste.png,image2/kan_liver.png,1,46,46,16,304.4816448,304.4816448,304.8082322,304.8081658,k,2.620850875,F02,Female,25,2023-02-07_14h42.36.892,id,2022.2.3,59.94890867,1,0
sound,pal,shape,2,image1/pal_foot.png,image2/pal_shade.png,1,56,56,26,338.3170185,338.3170185,338.6756015,338.6755346,k,2.732544958,F02,Female,25,2023-02-07_14h42.36.892,id,2022.2.3,59.94890867,1,0
sound,pam,shape,2,image1/pam_night.png,image2/pam_chestnut.png,1,58,58,21,344.635639,344.635639,344.9923577,344.9924452,k,2.346394792,F02,Female,25,2023-02-07_14h42.36.892,id,2022.2.3,59.94890867,1,0
sound,kan,shape,1,image1/kan_taste.png,image2/kan_liver.png,1,59,59,15,347.5315546,347.5315546,347.8578673,347.8581237,k,2.532688833,F02,Female,25,2023-02-07_14h42.36.892,id,2022.2.3,59.94890867,1,0
sound,pal,shape,4,image1/pal_foot.png,image2/pal_shade.png,1,60,60,28,350.5463438,350.5463438,350.9090397,350.9090226,d,2.97665725,F02,Female,25,2023-02-07_14h42.36.892,id,2022.2.3,59.94890867,1,1
sound,pam,shape,3,image1/pam_night.png,image2/pam_chestnut.png,1,61,61,22,354.0595744,354.0595744,354.3923552,354.3923458,d,3.360368458,F02,Female,25,2023-02-07_14h42.36.892,id,2022.2.3,59.94890867,1,1
sound,pam,shape,5,image1/pam_night.png,image2/pam_chestnut.png,1,70,70,24,383.0462546,383.0462546,383.3757287,383.3757673,d,2.583939041,F02,Female,25,2023-02-07_14h42.36.892,id,2022.2.3,59.94890867,1,1
sound,pam,shape,1,image1/pam_night.png,image2/pam_chestnut.png,1,2,2,20,435.7302782,435.7302782,436.0760718,436.0760806,k,2.905098875,F02,Female,25,2023-02-07_14h42.36.892,id,2022.2.3,59.94890867,2,0
sound,kan,shape,4,image1/kan_taste.png,image2/kan_liver.png,1,11,11,18,467.814635,467.814635,468.1425796,468.1426703,d,2.897879,F02,Female,25,2023-02-07_14h42.36.892,id,2022.2.3,59.94890867,2,1
sound,pal,shape,4,image1/pal_foot.png,image2/pal_shade.png,1,19,19,28,493.0455402,493.0455402,493.4096009,493.4098982,d,2.700897208,F02,Female,25,2023-02-07_14h42.36.892,id,2022.2.3,59.94890867,2,1
sound,kan,shape,2,image1/kan_taste.png,image2/kan_liver.png,1,23,23,16,506.2662113,506.2662113,506.5923963,506.5929092,k,3.337523083,F02,Female,25,2023-02-07_14h42.36.892,id,2022.2.3,59.94890867,2,0
sound,kan,shape,5,image1/kan_taste.png,image2/kan_liver.png,1,24,24,19,510.1238395,510.1238395,510.4595567,510.4596291,d,2.77876025,F02,Female,25,2023-02-07_14h42.36.892,id,2022.2.3,59.94890867,2,1
sound,kan,shape,1,image1/kan_taste.png,image2/kan_liver.png,1,28,28,15,523.5823475,523.5823475,523.9088837,523.9096581,k,2.809386166,F02,Female,25,2023-02-07_14h42.36.892,id,2022.2.3,59.94890867,2,0
sound,pam,shape,2,image1/pam_night.png,image2/pam_chestnut.png,1,38,38,21,555.0694721,555.0694721,555.4096683,555.4099508,d,3.417103625,F02,Female,25,2023-02-07_14h42.36.892,id,2022.2.3,59.94890867,2,1
sound,pal,shape,1,image1/pal_foot.png,image2/pal_shade.png,1,40,40,25,561.881029,561.881029,562.2265714,562.2264913,k,2.517417625,F02,Female,25,2023-02-07_14h42.36.892,id,2022.2.3,59.94890867,2,0
sound,pal,shape,5,image1/pal_foot.png,image2/pal_shade.png,1,43,43,29,571.0333915,571.0333915,571.393212,571.393137,d,2.609565583,F02,Female,25,2023-02-07_14h42.36.892,id,2022.2.3,59.94890867,2,1
sound,pam,shape,5,image1/pam_night.png,image2/pam_chestnut.png,1,54,54,24,606.1780394,606.1780394,606.5100214,606.5100422,d,2.666654166,F02,Female,25,2023-02-07_14h42.36.892,id,2022.2.3,59.94890867,2,1
sound,pal,shape,2,image1/pal_foot.png,image2/pal_shade.png,1,55,55,26,609.3347687,609.3347687,609.6766539,609.676663,k,3.204952749,F02,Female,25,2023-02-07_14h42.36.892,id,2022.2.3,59.94890867,2,0
sound,kan,shape,3,image1/kan_taste.png,image2/kan_liver.png,1,56,56,17,613.0770292,613.0770292,613.4095213,613.4100815,d,2.744359791,F02,Female,25,2023-02-07_14h42.36.892,id,2022.2.3,59.94890867,2,1
sound,pam,shape,4,image1/pam_night.png,image2/pam_chestnut.png,1,68,68,23,650.8797967,650.8797967,651.2101449,651.2102481,d,2.468270666,F02,Female,25,2023-02-07_14h42.36.892,id,2022.2.3,59.94890867,2,1
sound,pal,shape,3,image1/pal_foot.png,image2/pal_shade.png,1,70,70,27,656.7682229,656.7682229,657.126958,657.1269249,d,2.64441575,F02,Female,25,2023-02-07_14h42.36.892,id,2022.2.3,59.94890867,2,1
sound,pam,shape,3,image1/pam_night.png,image2/pam_chestnut.png,1,71,71,22,659.9450198,659.9450198,660.2935101,660.2935233,k,2.599671124,F02,Female,25,2023-02-07_14h42.36.892,id,2022.2.3,59.94890867,2,0
sound,pal,shape,1,image1/pal_foot.png,image2/pal_shade.png,1,9,9,25,702.3988663,702.3988663,702.7436669,702.7438268,k,2.807263291,F02,Female,25,2023-02-07_14h42.36.892,id,2022.2.3,59.94890867,3,0
sound,kan,shape,4,image1/kan_taste.png,image2/kan_liver.png,1,13,13,18,715.6820727,715.6820727,716.0105365,716.0105116,d,2.637135749,F02,Female,25,2023-02-07_14h42.36.892,id,2022.2.3,59.94890867,3,1
sound,pam,shape,1,image1/pam_night.png,image2/pam_chestnut.png,1,14,14,20,718.8284934,718.8284934,719.1772369,719.1767427,k,2.853849124,F02,Female,25,2023-02-07_14h42.36.892,id,2022.2.3,59.94890867,3,0
sound,pal,shape,4,image1/pal_foot.png,image2/pal_shade.png,1,15,15,28,722.201539,722.201539,722.5604864,722.5605098,d,2.531980374,F02,Female,25,2023-02-07_14h42.36.892,id,2022.2.3,59.94890867,3,1
sound,kan,shape,2,image1/kan_taste.png,image2/kan_liver.png,1,16,16,16,725.2786327,725.2786327,725.5935991,725.5937059,d,5.373764874,F02,Female,25,2023-02-07_14h42.36.892,id,2022.2.3,59.94890867,3,1
sound,pal,shape,2,image1/pal_foot.png,image2/pal_shade.png,1,22,22,26,746.6524734,746.6524734,747.0105584,747.0106873,k,2.429299875,F02,Female,25,2023-02-07_14h42.36.892,id,2022.2.3,59.94890867,3,0
sound,pal,shape,5,image1/pal_foot.png,image2/pal_shade.png,1,24,24,29,752.7641899,752.7641899,753.1269899,753.1273955,d,2.976476916,F02,Female,25,2023-02-07_14h42.36.892,id,2022.2.3,59.94890867,3,1
sound,pam,shape,3,image1/pam_night.png,image2/pam_chestnut.png,1,28,28,22,765.9802735,765.9802735,766.3271033,766.3270922,k,2.882328708,F02,Female,25,2023-02-07_14h42.36.892,id,2022.2.3,59.94890867,3,0
sound,kan,shape,5,image1/kan_taste.png,image2/kan_liver.png,1,31,31,19,775.417402,775.417402,775.7436318,775.7441591,d,4.404292,F02,Female,25,2023-02-07_14h42.36.892,id,2022.2.3,59.94890867,3,1
sound,pam,shape,5,image1/pam_night.png,image2/pam_chestnut.png,1,36,36,24,792.9112398,792.9112398,793.2607971,793.2606773,d,2.597435542,F02,Female,25,2023-02-07_14h42.36.892,id,2022.2.3,59.94890867,3,1
sound,pal,shape,3,image1/pal_foot.png,image2/pal_shade.png,1,46,46,27,823.8919162,823.8919162,824.2442747,824.2442284,d,2.630942083,F02,Female,25,2023-02-07_14h42.36.892,id,2022.2.3,59.94890867,3,1
sound,kan,shape,3,image1/kan_taste.png,image2/kan_liver.png,1,55,55,17,852.7669866,852.7669866,853.0938281,853.0945721,k,2.663922917,F02,Female,25,2023-02-07_14h42.36.892,id,2022.2.3,59.94890867,3,0
sound,pam,shape,2,image1/pam_night.png,image2/pam_chestnut.png,1,63,63,21,878.9295824,878.9295824,879.2774541,879.277862,k,3.388865125,F02,Female,25,2023-02-07_14h42.36.892,id,2022.2.3,59.94890867,3,0
sound,kan,shape,1,image1/kan_taste.png,image2/kan_liver.png,1,72,72,15,909.1615478,909.1615478,909.477907,909.4780941,k,2.915596041,F02,Female,25,2023-02-07_14h42.36.892,id,2022.2.3,59.94890867,3,0
sound,pam,shape,4,image1/pam_night.png,image2/pam_chestnut.png,1,73,73,23,912.5626501,912.5626501,912.8947706,912.8946661,d,3.512781541,F02,Female,25,2023-02-07_14h42.36.892,id,2022.2.3,59.94890867,3,1
sound,pam,shape,5,image1/pam_night.png,image2/pam_chestnut.png,1,0,0,24,949.6739001,949.6739001,950.0115072,950.0114586,d,2.887566958,F02,Female,25,2023-02-07_14h42.36.892,id,2022.2.3,59.94890867,4,1
sound,kan,shape,5,image1/kan_taste.png,image2/kan_liver.png,1,3,3,19,959.4327147,959.4327147,959.7606423,959.761547,k,2.870169166,F02,Female,25,2023-02-07_14h42.36.892,id,2022.2.3,59.94890867,4,0
sound,pal,shape,5,image1/pal_foot.png,image2/pal_shade.png,1,8,8,29,975.703175,975.703175,976.061443,976.0615066,d,3.141883292,F02,Female,25,2023-02-07_14h42.36.892,id,2022.2.3,59.94890867,4,1
sound,pam,shape,1,image1/pam_night.png,image2/pam_chestnut.png,1,11,11,20,985.5971908,985.5971908,985.9447412,985.9449489,k,3.106211958,F02,Female,25,2023-02-07_14h42.36.892,id,2022.2.3,59.94890867,4,0
sound,pam,shape,2,image1/pam_night.png,image2/pam_chestnut.png,1,12,12,21,989.2203725,989.2203725,989.5615795,989.561691,k,2.345310166,F02,Female,25,2023-02-07_14h42.36.892,id,2022.2.3,59.94890867,4,0
sound,kan,shape,4,image1/kan_taste.png,image2/kan_liver.png,1,29,29,18,1041.302119,1041.302119,1041.627659,1041.628436,d,3.816880583,F02,Female,25,2023-02-07_14h42.36.892,id,2022.2.3,59.94890867,4,1
sound,kan,shape,3,image1/kan_taste.png,image2/kan_liver.png,1,36,36,17,1064.300412,1064.300412,1064.628576,1064.628531,d,2.67929225,F02,Female,25,2023-02-07_14h42.36.892,id,2022.2.3,59.94890867,4,1
sound,pal,shape,1,image1/pal_foot.png,image2/pal_shade.png,1,40,40,25,1076.386125,1076.386125,1076.728639,1076.728557,k,3.066811291,F02,Female,25,2023-02-07_14h42.36.892,id,2022.2.3,59.94890867,4,0
sound,kan,shape,1,image1/kan_taste.png,image2/kan_liver.png,1,51,51,15,1111.949695,1111.949695,1112.27879,1112.278811,k,3.054645333,F02,Female,25,2023-02-07_14h42.36.892,id,2022.2.3,59.94890867,4,0
sound,kan,shape,2,image1/kan_taste.png,image2/kan_liver.png,1,56,56,16,1127.883032,1127.883032,1128.212332,1128.211785,k,2.658353249,F02,Female,25,2023-02-07_14h42.36.892,id,2022.2.3,59.94890867,4,0
sound,pam,shape,3,image1/pam_night.png,image2/pam_chestnut.png,1,58,58,22,1134.214446,1134.214446,1134.561517,1134.562222,d,3.137626458,F02,Female,25,2023-02-07_14h42.36.892,id,2022.2.3,59.94890867,4,1
sound,pal,shape,3,image1/pal_foot.png,image2/pal_shade.png,1,59,59,27,1137.869292,1137.869292,1138.212229,1138.212218,d,2.879583042,F02,Female,25,2023-02-07_14h42.36.892,id,2022.2.3,59.94890867,4,1
sound,pal,shape,4,image1/pal_foot.png,image2/pal_shade.png,1,62,62,28,1149.671096,1149.671096,1150.028873,1150.029059,d,2.622101833,F02,Female,25,2023-02-07_14h42.36.892,id,2022.2.3,59.94890867,4,1
sound,pal,shape,2,image1/pal_foot.png,image2/pal_shade.png,1,70,70,26,1174.419633,1174.419633,1174.762359,1174.762329,k,2.766092875,F02,Female,25,2023-02-07_14h42.36.892,id,2022.2.3,59.94890867,4,0
sound,pam,shape,4,image1/pam_night.png,image2/pam_chestnut.png,1,74,74,23,1188.147462,1188.147462,1188.479341,1188.479176,d,5.224257833,F02,Female,25,2023-02-07_14h42.36.892,id,2022.2.3,59.94890867,4,1
sound,kan,shape,3,image1/kan_taste.png,image2/kan_liver.png,1,1,1,17,409.6897646,409.6897646,410.0073524,410.0073611,k,8.290205458,F03,Female,25,2023-02-07_17h05.03.908,id,2022.2.3,59.39484069,1,0
sound,pal,shape,3,image1/pal_foot.png,image2/pal_shade.png,1,6,6,27,432.4447469,432.4447469,432.8058145,432.8075403,d,10.34725158,F03,Female,25,2023-02-07_17h05.03.908,id,2022.2.3,59.39484069,1,1
sound,pam,shape,3,image1/pam_night.png,image2/pam_chestnut.png,1,11,11,22,458.1585635,458.1585635,458.5061717,458.5063621,d,3.049015875,F03,Female,25,2023-02-07_17h05.03.908,id,2022.2.3,59.39484069,1,1
sound,kan,shape,1,image1/kan_taste.png,image2/kan_liver.png,1,15,15,15,472.5815603,472.5815603,472.9076255,472.9078172,k,3.43317625,F03,Female,25,2023-02-07_17h05.03.908,id,2022.2.3,59.39484069,1,0
sound,pam,shape,1,image1/pam_night.png,image2/pam_chestnut.png,1,21,21,20,494.3751853,494.3751853,494.7078554,494.7063977,d,6.401078958,F03,Female,25,2023-02-07_17h05.03.908,id,2022.2.3,59.39484069,1,1
sound,kan,shape,2,image1/kan_taste.png,image2/kan_liver.png,1,23,23,16,508.641991,508.641991,508.9583709,508.9581691,k,3.367935749,F03,Female,25,2023-02-07_17h05.03.908,id,2022.2.3,59.39484069,1,0
sound,pam,shape,5,image1/pam_night.png,image2/pam_chestnut.png,1,28,28,24,527.4447893,527.4447893,527.7746731,527.7732003,d,5.437998,F03,Female,25,2023-02-07_17h05.03.908,id,2022.2.3,59.39484069,1,1
sound,kan,shape,5,image1/kan_taste.png,image2/kan_liver.png,1,34,34,19,548.5154447,548.5154447,548.8413511,548.8410076,d,2.885921208,F03,Female,25,2023-02-07_17h05.03.908,id,2022.2.3,59.39484069,1,1
sound,pal,shape,5,image1/pal_foot.png,image2/pal_shade.png,1,35,35,29,551.8957936,551.8957936,552.256485,552.257971,d,4.128117417,F03,Female,25,2023-02-07_17h05.03.908,id,2022.2.3,59.39484069,1,1
sound,kan,shape,4,image1/kan_taste.png,image2/kan_liver.png,1,40,40,18,572.2618423,572.2618423,572.574752,572.5748451,k,3.308310125,F03,Female,25,2023-02-07_17h05.03.908,id,2022.2.3,59.39484069,1,0
sound,pal,shape,4,image1/pal_foot.png,image2/pal_shade.png,1,41,41,28,576.0447757,576.0447757,576.406548,576.4084789,d,3.799726417,F03,Female,25,2023-02-07_17h05.03.908,id,2022.2.3,59.39484069,1,1
sound,pam,shape,2,image1/pam_night.png,image2/pam_chestnut.png,1,47,47,21,595.942529,595.942529,596.2747201,596.2733446,k,3.515428875,F03,Female,25,2023-02-07_17h05.03.908,id,2022.2.3,59.39484069,1,0
sound,pam,shape,4,image1/pam_night.png,image2/pam_chestnut.png,1,55,55,23,621.4260343,621.4260343,621.758186,621.7568801,k,5.550741042,F03,Female,25,2023-02-07_17h05.03.908,id,2022.2.3,59.39484069,1,0
sound,pal,shape,1,image1/pal_foot.png,image2/pal_shade.png,1,65,65,25,660.0670749,660.0670749,660.408409,660.4071352,k,3.299690958,F03,Female,25,2023-02-07_17h05.03.908,id,2022.2.3,59.39484069,1,0
sound,pal,shape,2,image1/pal_foot.png,image2/pal_shade.png,1,68,68,26,671.4334983,671.4334983,671.7751476,671.7737897,k,2.825559792,F03,Female,25,2023-02-07_17h05.03.908,id,2022.2.3,59.39484069,1,0
sound,kan,shape,3,image1/kan_taste.png,image2/kan_liver.png,1,2,2,17,731.5473387,731.5473387,731.8585366,731.8589725,d,5.806102583,F03,Female,25,2023-02-07_17h05.03.908,id,2022.2.3,59.39484069,2,1
sound,pam,shape,3,image1/pam_night.png,image2/pam_chestnut.png,1,6,6,22,748.1275606,748.1275606,748.4588896,748.4574859,d,2.751198833,F03,Female,25,2023-02-07_17h05.03.908,id,2022.2.3,59.39484069,2,1
sound,pam,shape,1,image1/pam_night.png,image2/pam_chestnut.png,1,7,7,20,751.3859156,751.3859156,751.7405918,751.7410758,k,3.333570625,F03,Female,25,2023-02-07_17h05.03.908,id,2022.2.3,59.39484069,2,0
sound,pal,shape,2,image1/pal_foot.png,image2/pal_shade.png,1,10,10,26,761.5697973,761.5697973,761.9092153,761.9073578,k,2.845092292,F03,Female,25,2023-02-07_17h05.03.908,id,2022.2.3,59.39484069,2,0
sound,pam,shape,5,image1/pam_night.png,image2/pam_chestnut.png,1,13,13,24,771.4926463,771.4926463,771.8256012,771.8241705,d,2.755972458,F03,Female,25,2023-02-07_17h05.03.908,id,2022.2.3,59.39484069,2,1
sound,pam,shape,4,image1/pam_night.png,image2/pam_chestnut.png,1,16,16,23,781.1628062,781.1628062,781.5074029,781.5075358,d,2.689332625,F03,Female,25,2023-02-07_17h05.03.908,id,2022.2.3,59.39484069,2,1
sound,pam,shape,2,image1/pam_night.png,image2/pam_chestnut.png,1,24,24,21,807.3464379,807.3464379,807.6910758,807.6911821,k,3.43521375,F03,Female,25,2023-02-07_17h05.03.908,id,2022.2.3,59.39484069,2,0
sound,kan,shape,5,image1/kan_taste.png,image2/kan_liver.png,1,25,25,19,811.3292482,811.3292482,811.6424605,811.6426466,d,2.620582875,F03,Female,25,2023-02-07_17h05.03.908,id,2022.2.3,59.39484069,2,1
sound,kan,shape,1,image1/kan_taste.png,image2/kan_liver.png,1,27,27,15,817.7755099,817.7755099,818.109141,818.107664,k,3.333542125,F03,Female,25,2023-02-07_17h05.03.908,id,2022.2.3,59.39484069,2,0
sound,pal,shape,3,image1/pal_foot.png,image2/pal_shade.png,1,31,31,27,831.6836544,831.6836544,832.0258589,832.0245095,k,3.018197375,F03,Female,25,2023-02-07_17h05.03.908,id,2022.2.3,59.39484069,2,0
sound,kan,shape,2,image1/kan_taste.png,image2/kan_liver.png,1,40,40,16,861.0431288,861.0431288,861.359636,861.3594398,d,4.330395124,F03,Female,25,2023-02-07_17h05.03.908,id,2022.2.3,59.39484069,2,1
sound,pal,shape,1,image1/pal_foot.png,image2/pal_shade.png,1,45,45,25,880.0110018,880.0110018,880.3746174,880.3762639,k,2.993856292,F03,Female,25,2023-02-07_17h05.03.908,id,2022.2.3,59.39484069,2,0
sound,pal,shape,5,image1/pal_foot.png,image2/pal_shade.png,1,56,56,29,920.2949927,920.2949927,920.6580312,920.6595658,d,4.383066583,F03,Female,25,2023-02-07_17h05.03.908,id,2022.2.3,59.39484069,2,1
sound,kan,shape,4,image1/kan_taste.png,image2/kan_liver.png,1,69,69,18,966.9544945,966.9544945,967.2762999,967.2766135,k,4.269941458,F03,Female,25,2023-02-07_17h05.03.908,id,2022.2.3,59.39484069,2,0
sound,pal,shape,4,image1/pal_foot.png,image2/pal_shade.png,1,70,70,28,971.7117051,971.7117051,972.0582411,972.0583782,d,2.829145208,F03,Female,25,2023-02-07_17h05.03.908,id,2022.2.3,59.39484069,2,1
sound,pal,shape,5,image1/pal_foot.png,image2/pal_shade.png,1,0,0,29,988.424058,988.424058,988.7598195,988.7583908,d,4.112068083,F03,Female,25,2023-02-07_17h05.03.908,id,2022.2.3,59.39484069,3,1
sound,pam,shape,1,image1/pam_night.png,image2/pam_chestnut.png,1,8,8,20,1014.646912,1014.646912,1014.976638,1014.975267,k,3.1504665,F03,Female,25,2023-02-07_17h05.03.908,id,2022.2.3,59.39484069,3,0
sound,pam,shape,2,image1/pam_night.png,image2/pam_chestnut.png,1,10,10,21,1021.467408,1021.467408,1021.810024,1021.808618,k,2.428092041,F03,Female,25,2023-02-07_17h05.03.908,id,2022.2.3,59.39484069,3,0
sound,kan,shape,1,image1/kan_taste.png,image2/kan_liver.png,1,12,12,15,1027.717348,1027.717348,1028.043467,1028.044098,k,2.790199666,F03,Female,25,2023-02-07_17h05.03.908,id,2022.2.3,59.39484069,3,0
sound,kan,shape,4,image1/kan_taste.png,image2/kan_liver.png,1,21,21,18,1057.079988,1057.079988,1057.39358,1057.393869,d,2.735812124,F03,Female,25,2023-02-07_17h05.03.908,id,2022.2.3,59.39484069,3,1
sound,kan,shape,2,image1/kan_taste.png,image2/kan_liver.png,1,26,26,16,1072.912353,1072.912353,1073.227192,1073.226925,k,3.148257333,F03,Female,25,2023-02-07_17h05.03.908,id,2022.2.3,59.39484069,3,0
sound,pal,shape,2,image1/pal_foot.png,image2/pal_shade.png,1,28,28,26,1079.890297,1079.890297,1080.242115,1080.242129,k,3.956813708,F03,Female,25,2023-02-07_17h05.03.908,id,2022.2.3,59.39484069,3,0
sound,kan,shape,3,image1/kan_taste.png,image2/kan_liver.png,1,31,31,17,1090.616478,1090.616478,1090.927087,1090.927088,k,3.767834833,F03,Female,25,2023-02-07_17h05.03.908,id,2022.2.3,59.39484069,3,0
sound,pal,shape,3,image1/pal_foot.png,image2/pal_shade.png,1,37,37,27,1112.791895,1112.791895,1113.142067,1113.14238,d,3.557084333,F03,Female,25,2023-02-07_17h05.03.908,id,2022.2.3,59.39484069,3,1
sound,pal,shape,4,image1/pal_foot.png,image2/pal_shade.png,1,41,41,28,1126.418773,1126.418773,1126.760426,1126.75905,d,3.270875667,F03,Female,25,2023-02-07_17h05.03.908,id,2022.2.3,59.39484069,3,1
sound,pal,shape,1,image1/pal_foot.png,image2/pal_shade.png,1,42,42,25,1130.191592,1130.191592,1130.559001,1130.56069,k,2.738312958,F03,Female,25,2023-02-07_17h05.03.908,id,2022.2.3,59.39484069,3,0
sound,kan,shape,5,image1/kan_taste.png,image2/kan_liver.png,1,48,48,19,1149.433316,1149.433316,1149.743997,1149.743845,d,4.216145791,F03,Female,25,2023-02-07_17h05.03.908,id,2022.2.3,59.39484069,3,1
sound,pam,shape,3,image1/pam_night.png,image2/pam_chestnut.png,1,57,57,22,1183.011365,1183.011365,1183.359373,1183.359396,d,2.680793291,F03,Female,25,2023-02-07_17h05.03.908,id,2022.2.3,59.39484069,3,1
sound,pam,shape,5,image1/pam_night.png,image2/pam_chestnut.png,1,69,69,24,1224.744258,1224.744258,1225.077589,1225.076003,d,3.196038792,F03,Female,25,2023-02-07_17h05.03.908,id,2022.2.3,59.39484069,3,1
sound,pam,shape,4,image1/pam_night.png,image2/pam_chestnut.png,1,72,72,23,1234.396996,1234.396996,1234.727818,1234.725938,d,3.525849208,F03,Female,25,2023-02-07_17h05.03.908,id,2022.2.3,59.39484069,3,1
sound,pam,shape,5,image1/pam_night.png,image2/pam_chestnut.png,1,7,7,24,1296.72903,1296.72903,1297.061232,1297.060005,d,2.594471333,F03,Female,25,2023-02-07_17h05.03.908,id,2022.2.3,59.39484069,4,1
sound,kan,shape,3,image1/kan_taste.png,image2/kan_liver.png,1,15,15,17,1320.836084,1320.836084,1321.161452,1321.161637,k,3.730433708,F03,Female,25,2023-02-07_17h05.03.908,id,2022.2.3,59.39484069,4,0
sound,pal,shape,1,image1/pal_foot.png,image2/pal_shade.png,1,16,16,25,1325.05024,1325.05024,1325.409939,1325.411557,k,2.754491625,F03,Female,25,2023-02-07_17h05.03.908,id,2022.2.3,59.39484069,4,0
sound,pam,shape,1,image1/pam_night.png,image2/pam_chestnut.png,1,20,20,20,1339.548073,1339.548073,1339.893441,1339.893676,k,2.619942708,F03,Female,25,2023-02-07_17h05.03.908,id,2022.2.3,59.39484069,4,0
sound,kan,shape,2,image1/kan_taste.png,image2/kan_liver.png,1,22,22,16,1345.9831,1345.9831,1346.294918,1346.295126,k,3.801484458,F03,Female,25,2023-02-07_17h05.03.908,id,2022.2.3,59.39484069,4,0
sound,pal,shape,3,image1/pal_foot.png,image2/pal_shade.png,1,23,23,27,1350.265722,1350.265722,1350.62674,1350.62842,k,3.304460499,F03,Female,25,2023-02-07_17h05.03.908,id,2022.2.3,59.39484069,4,0
sound,pam,shape,3,image1/pam_night.png,image2/pam_chestnut.png,1,31,31,22,1376.405352,1376.405352,1376.7602,1376.7604,k,2.600421083,F03,Female,25,2023-02-07_17h05.03.908,id,2022.2.3,59.39484069,4,0
sound,pal,shape,5,image1/pal_foot.png,image2/pal_shade.png,1,32,32,29,1379.535254,1379.535254,1379.893408,1379.893433,d,3.447387167,F03,Female,25,2023-02-07_17h05.03.908,id,2022.2.3,59.39484069,4,1
sound,pal,shape,2,image1/pal_foot.png,image2/pal_shade.png,1,38,38,26,1399.343269,1399.343269,1399.710242,1399.712046,k,2.964278124,F03,Female,25,2023-02-07_17h05.03.908,id,2022.2.3,59.39484069,4,0
sound,kan,shape,4,image1/kan_taste.png,image2/kan_liver.png,1,43,43,18,1416.800838,1416.800838,1417.11181,1417.111895,d,4.383059624,F03,Female,25,2023-02-07_17h05.03.908,id,2022.2.3,59.39484069,4,1
sound,pam,shape,2,image1/pam_night.png,image2/pam_chestnut.png,1,44,44,21,1421.662171,1421.662171,1421.995159,1421.993589,k,3.652925416,F03,Female,25,2023-02-07_17h05.03.908,id,2022.2.3,59.39484069,4,0
sound,pam,shape,4,image1/pam_night.png,image2/pam_chestnut.png,1,60,60,23,1476.394788,1476.394788,1476.728653,1476.727252,d,4.531955874,F03,Female,25,2023-02-07_17h05.03.908,id,2022.2.3,59.39484069,4,1
sound,kan,shape,1,image1/kan_taste.png,image2/kan_liver.png,1,67,67,15,1501.492765,1501.492765,1501.812031,1501.812233,k,2.864176708,F03,Female,25,2023-02-07_17h05.03.908,id,2022.2.3,59.39484069,4,0
sound,pal,shape,4,image1/pal_foot.png,image2/pal_shade.png,1,68,68,28,1504.832508,1504.832508,1505.193918,1505.195569,d,3.696894666,F03,Female,25,2023-02-07_17h05.03.908,id,2022.2.3,59.39484069,4,1
sound,kan,shape,5,image1/kan_taste.png,image2/kan_liver.png,1,74,74,19,1529.091425,1529.091425,1529.412682,1529.41228,d,2.643703667,F03,Female,25,2023-02-07_17h05.03.908,id,2022.2.3,59.39484069,4,1
sound,pal,shape,3,image1/pal_foot.png,image2/pal_shade.png,1,1,1,27,251.6459511,251.6459511,251.9874812,251.9872699,d,6.584997583,F04,Female,25,2023-02-07_14h16.40.665,id,2022.2.3,59.90662032,1,1
sound,pam,shape,2,image1/pam_night.png,image2/pam_chestnut.png,1,8,8,21,289.22425,289.22425,289.5541833,289.5542837,d,6.852052416,F04,Female,25,2023-02-07_14h16.40.665,id,2022.2.3,59.90662032,1,1
sound,kan,shape,4,image1/kan_taste.png,image2/kan_liver.png,1,11,11,18,303.809599,303.809599,304.1374693,304.1375979,d,3.386508667,F04,Female,25,2023-02-07_14h16.40.665,id,2022.2.3,59.90662032,1,1
sound,pal,shape,1,image1/pal_foot.png,image2/pal_shade.png,1,12,12,25,307.6933892,307.6933892,308.053942,308.0542486,k,4.22673725,F04,Female,25,2023-02-07_14h16.40.665,id,2022.2.3,59.90662032,1,0
sound,pam,shape,3,image1/pam_night.png,image2/pam_chestnut.png,1,17,17,22,326.7232407,326.7232407,327.054343,327.0543575,d,7.029623167,F04,Female,25,2023-02-07_14h16.40.665,id,2022.2.3,59.90662032,1,1
sound,pal,shape,2,image1/pal_foot.png,image2/pal_shade.png,1,25,25,26,359.1762523,359.1762523,359.5212792,359.5212568,k,3.7774685,F04,Female,25,2023-02-07_14h16.40.665,id,2022.2.3,59.90662032,1,0
sound,pam,shape,4,image1/pam_night.png,image2/pam_chestnut.png,1,33,33,23,392.140554,392.140554,392.4880838,392.4881085,d,2.926964833,F04,Female,25,2023-02-07_14h16.40.665,id,2022.2.3,59.90662032,1,1
sound,pal,shape,5,image1/pal_foot.png,image2/pal_shade.png,1,42,42,29,432.0627628,432.0627628,432.4214796,432.4217113,d,2.823772958,F04,Female,25,2023-02-07_14h16.40.665,id,2022.2.3,59.90662032,1,1
sound,kan,shape,3,image1/kan_taste.png,image2/kan_liver.png,1,46,46,17,446.7754364,446.7754364,447.0883722,447.0878953,d,3.718639625,F04,Female,25,2023-02-07_14h16.40.665,id,2022.2.3,59.90662032,1,1
sound,pal,shape,4,image1/pal_foot.png,image2/pal_shade.png,1,56,56,28,486.1617462,486.1617462,486.5048875,486.5053391,d,3.046071208,F04,Female,25,2023-02-07_14h16.40.665,id,2022.2.3,59.90662032,1,1
sound,pam,shape,5,image1/pam_night.png,image2/pam_chestnut.png,1,58,58,24,493.105758,493.105758,493.4551244,493.4550502,d,3.135153499,F04,Female,25,2023-02-07_14h16.40.665,id,2022.2.3,59.90662032,1,1
sound,pam,shape,1,image1/pam_night.png,image2/pam_chestnut.png,1,63,63,20,523.5723536,523.5723536,523.9214475,523.9220516,k,8.795068125,F04,Female,25,2023-02-07_14h16.40.665,id,2022.2.3,59.90662032,1,0
sound,kan,shape,2,image1/kan_taste.png,image2/kan_liver.png,1,65,65,16,537.8088574,537.8088574,538.1381852,538.1378883,d,2.891183624,F04,Female,25,2023-02-07_14h16.40.665,id,2022.2.3,59.90662032,1,1
sound,kan,shape,1,image1/kan_taste.png,image2/kan_liver.png,1,69,69,15,554.9068445,554.9068445,555.2381656,555.2386788,d,3.682864208,F04,Female,25,2023-02-07_14h16.40.665,id,2022.2.3,59.90662032,1,1
sound,kan,shape,5,image1/kan_taste.png,image2/kan_liver.png,1,72,72,19,566.2766949,566.2766949,566.6046265,566.6047231,d,5.269484875,F04,Female,25,2023-02-07_14h16.40.665,id,2022.2.3,59.90662032,1,1
sound,kan,shape,5,image1/kan_taste.png,image2/kan_liver.png,1,4,4,19,624.1585285,624.1585285,624.4882075,624.4890985,d,2.937829125,F04,Female,25,2023-02-07_14h16.40.665,id,2022.2.3,59.90662032,2,1
sound,pam,shape,2,image1/pam_night.png,image2/pam_chestnut.png,1,5,5,21,627.6092745,627.6092745,627.9548529,627.95577720000006,k,2.850974417,F04,Female,25,2023-02-07_14h16.40.665,id,2022.2.3,59.90662032,2,0
sound,kan,shape,4,image1/kan_taste.png,image2/kan_liver.png,1,7,7,18,634.7933202,634.7933202,635.1220204,635.122697,d,3.099821292,F04,Female,25,2023-02-07_14h16.40.665,id,2022.2.3,59.90662032,2,1
sound,pam,shape,4,image1/pam_night.png,image2/pam_chestnut.png,1,12,12,23,652.1722879,652.1722879,652.5221083,652.5226019,d,3.597430291,F04,Female,25,2023-02-07_14h16.40.665,id,2022.2.3,59.90662032,2,1
sound,pam,shape,1,image1/pam_night.png,image2/pam_chestnut.png,1,14,14,20,659.773447,659.773447,660.1226292,660.1221165,d,2.882840208,F04,Female,25,2023-02-07_14h16.40.665,id,2022.2.3,59.90662032,2,1
sound,pal,shape,5,image1/pal_foot.png,image2/pal_shade.png,1,19,19,29,682.4302824,682.4302824,682.7727194,682.7728274,d,3.587018708,F04,Female,25,2023-02-07_14h16.40.665,id,2022.2.3,59.90662032,2,1
sound,pal,shape,1,image1/pal_foot.png,image2/pal_shade.png,1,35,35,25,759.3469296,759.3469296,759.6897175,759.6892126,k,3.942312,F04,Female,25,2023-02-07_14h16.40.665,id,2022.2.3,59.90662032,2,0
sound,pam,shape,5,image1/pam_night.png,image2/pam_chestnut.png,1,36,36,24,763.8061125,763.8061125,764.1397192,764.1397254,d,4.659241416,F04,Female,25,2023-02-07_14h16.40.665,id,2022.2.3,59.90662032,2,1
sound,pam,shape,3,image1/pam_night.png,image2/pam_chestnut.png,1,41,41,22,783.6904967,783.6904967,784.0397253,784.0399089,d,4.036754333,F04,Female,25,2023-02-07_14h16.40.665,id,2022.2.3,59.90662032,2,1
sound,kan,shape,1,image1/kan_taste.png,image2/kan_liver.png,1,44,44,15,801.1452622,801.1452622,801.4732978,801.4731432,k,2.820310042,F04,Female,25,2023-02-07_14h16.40.665,id,2022.2.3,59.90662032,2,0
sound,kan,shape,2,image1/kan_taste.png,image2/kan_liver.png,1,47,47,16,817.0599193,817.0599193,817.3897118,817.3896354,d,3.446470042,F04,Female,25,2023-02-07_14h16.40.665,id,2022.2.3,59.90662032,2,1
sound,kan,shape,3,image1/kan_taste.png,image2/kan_liver.png,1,54,54,17,848.1288372,848.1288372,848.4563136,848.4566971,d,3.396852124,F04,Female,25,2023-02-07_14h16.40.665,id,2022.2.3,59.90662032,2,1
sound,pal,shape,3,image1/pal_foot.png,image2/pal_shade.png,1,61,61,27,873.9483875,873.9483875,874.2902411,874.2903509,d,5.205325791,F04,Female,25,2023-02-07_14h16.40.665,id,2022.2.3,59.90662032,2,1
sound,pal,shape,2,image1/pal_foot.png,image2/pal_shade.png,1,66,66,26,896.2477941,896.2477941,896.5905386,896.5904168,d,5.633217333,F04,Female,25,2023-02-07_14h16.40.665,id,2022.2.3,59.90662032,2,1
sound,pal,shape,4,image1/pal_foot.png,image2/pal_shade.png,1,68,68,28,905.6632659,905.6632659,906.0071708,906.0070076,d,6.979536208,F04,Female,25,2023-02-07_14h16.40.665,id,2022.2.3,59.90662032,2,1
sound,pal,shape,4,image1/pal_foot.png,image2/pal_shade.png,1,0,0,28,935.4708571,935.4708571,935.8071432,935.8073301,d,3.603569958,F04,Female,25,2023-02-07_14h16.40.665,id,2022.2.3,59.90662032,3,1
sound,kan,shape,3,image1/kan_taste.png,image2/kan_liver.png,1,1,1,17,939.6137631,939.6137631,939.9399056,939.9405026,d,3.688865124,F04,Female,25,2023-02-07_14h16.40.665,id,2022.2.3,59.90662032,3,1
sound,kan,shape,2,image1/kan_taste.png,image2/kan_liver.png,1,10,10,16,970.0462286,970.0462286,970.373981,970.3739511,d,2.949701375,F04,Female,25,2023-02-07_14h16.40.665,id,2022.2.3,59.90662032,3,1
sound,pam,shape,4,image1/pam_night.png,image2/pam_chestnut.png,1,13,13,23,981.2251272,981.2251272,981.5729556,981.5730801,d,8.716899291,F04,Female,25,2023-02-07_14h16.40.665,id,2022.2.3,59.90662032,3,1
sound,kan,shape,1,image1/kan_taste.png,image2/kan_liver.png,1,19,19,15,1007.90911,1007.90911,1008.24089,1008.240765,d,4.829310458,F04,Female,25,2023-02-07_14h16.40.665,id,2022.2.3,59.90662032,3,1
sound,pam,shape,2,image1/pam_night.png,image2/pam_chestnut.png,1,21,21,21,1020.666422,1020.666422,1021.007653,1021.007566,d,6.411041375,F04,Female,25,2023-02-07_14h16.40.665,id,2022.2.3,59.90662032,3,1
sound,pal,shape,5,image1/pal_foot.png,image2/pal_shade.png,1,24,24,29,1034.076768,1034.076768,1034.424308,1034.424331,d,5.294494166,F04,Female,25,2023-02-07_14h16.40.665,id,2022.2.3,59.90662032,3,1
sound,pam,shape,1,image1/pam_night.png,image2/pam_chestnut.png,1,33,33,20,1073.226158,1073.226158,1073.557691,1073.557876,k,7.453845416,F04,Female,25,2023-02-07_14h16.40.665,id,2022.2.3,59.90662032,3,0
sound,pal,shape,3,image1/pal_foot.png,image2/pal_shade.png,1,34,34,27,1081.183062,1081.183062,1081.524484,1081.52445,d,3.693687625,F04,Female,25,2023-02-07_14h16.40.665,id,2022.2.3,59.90662032,3,1
sound,kan,shape,5,image1/kan_taste.png,image2/kan_liver.png,1,40,40,19,1104.263725,1104.263725,1104.590716,1104.590599,d,3.781650583,F04,Female,25,2023-02-07_14h16.40.665,id,2022.2.3,59.90662032,3,1
sound,pam,shape,5,image1/pam_night.png,image2/pam_chestnut.png,1,46,46,24,1131.126481,1131.126481,1131.458083,1131.458052,d,2.845206083,F04,Female,25,2023-02-07_14h16.40.665,id,2022.2.3,59.90662032,3,1
sound,pal,shape,2,image1/pal_foot.png,image2/pal_shade.png,1,47,47,26,1134.465171,1134.465171,1134.824112,1134.82474,d,2.861808583,F04,Female,25,2023-02-07_14h16.40.665,id,2022.2.3,59.90662032,3,1
sound,kan,shape,4,image1/kan_taste.png,image2/kan_liver.png,1,49,49,18,1141.93656,1141.93656,1142.274271,1142.275017,d,2.725283167,F04,Female,25,2023-02-07_14h16.40.665,id,2022.2.3,59.90662032,3,1
sound,pam,shape,3,image1/pam_night.png,image2/pam_chestnut.png,1,64,64,22,1201.77821,1201.77821,1202.12505,1202.124933,d,3.292623166,F04,Female,25,2023-02-07_14h16.40.665,id,2022.2.3,59.90662032,3,1
sound,pal,shape,1,image1/pal_foot.png,image2/pal_shade.png,1,67,67,25,1213.614898,1213.614898,1213.975021,1213.975038,d,7.165426333,F04,Female,25,2023-02-07_14h16.40.665,id,2022.2.3,59.90662032,3,1
sound,kan,shape,3,image1/kan_taste.png,image2/kan_liver.png,1,16,16,17,1334.843561,1334.843561,1335.17482,1335.175706,d,4.237856583,F04,Female,25,2023-02-07_14h16.40.665,id,2022.2.3,59.90662032,4,1
sound,kan,shape,1,image1/kan_taste.png,image2/kan_liver.png,1,20,20,15,1354.308934,1354.308934,1354.641469,1354.641662,d,3.190634708,F04,Female,25,2023-02-07_14h16.40.665,id,2022.2.3,59.90662032,4,1
sound,pal,shape,2,image1/pal_foot.png,image2/pal_shade.png,1,24,24,26,1368.814118,1368.814118,1369.159026,1369.159059,d,3.245858625,F04,Female,25,2023-02-07_14h16.40.665,id,2022.2.3,59.90662032,4,1
sound,pal,shape,4,image1/pal_foot.png,image2/pal_shade.png,1,28,28,28,1386.211861,1386.211861,1386.559861,1386.559239,k,3.753407541,F04,Female,25,2023-02-07_14h16.40.665,id,2022.2.3,59.90662032,4,0
sound,pam,shape,5,image1/pam_night.png,image2/pam_chestnut.png,1,32,32,24,1404.76061,1404.76061,1405.109089,1405.109312,d,3.609969208,F04,Female,25,2023-02-07_14h16.40.665,id,2022.2.3,59.90662032,4,1
sound,pam,shape,4,image1/pam_night.png,image2/pam_chestnut.png,1,33,33,23,1408.884919,1408.884919,1409.242398,1409.242636,d,2.9162765410000002,F04,Female,25,2023-02-07_14h16.40.665,id,2022.2.3,59.90662032,4,1
sound,pam,shape,3,image1/pam_night.png,image2/pam_chestnut.png,1,35,35,22,1417.210265,1417.210265,1417.542081,1417.542501,d,6.226800083,F04,Female,25,2023-02-07_14h16.40.665,id,2022.2.3,59.90662032,4,1
sound,pam,shape,1,image1/pam_night.png,image2/pam_chestnut.png,1,42,42,20,1447.301067,1447.301067,1447.642684,1447.64283,k,2.800310958,F04,Female,25,2023-02-07_14h16.40.665,id,2022.2.3,59.90662032,4,0
sound,pam,shape,2,image1/pam_night.png,image2/pam_chestnut.png,1,52,52,21,1484.109905,1484.109905,1484.442683,1484.442889,k,4.221868,F04,Female,25,2023-02-07_14h16.40.665,id,2022.2.3,59.90662032,4,0
sound,pal,shape,5,image1/pal_foot.png,image2/pal_shade.png,1,54,54,29,1492.233857,1492.233857,1492.576181,1492.57622,d,3.637068666,F04,Female,25,2023-02-07_14h16.40.665,id,2022.2.3,59.90662032,4,1
sound,kan,shape,2,image1/kan_taste.png,image2/kan_liver.png,1,61,61,16,1517.649607,1517.649607,1517.975734,1517.976389,d,3.442237417,F04,Female,25,2023-02-07_14h16.40.665,id,2022.2.3,59.90662032,4,1
sound,kan,shape,5,image1/kan_taste.png,image2/kan_liver.png,1,62,62,19,1521.607314,1521.607314,1521.943153,1521.942949,d,3.32442525,F04,Female,25,2023-02-07_14h16.40.665,id,2022.2.3,59.90662032,4,1
sound,pal,shape,3,image1/pal_foot.png,image2/pal_shade.png,1,63,63,27,1525.428759,1525.428759,1525.793056,1525.792904,d,3.671853874,F04,Female,25,2023-02-07_14h16.40.665,id,2022.2.3,59.90662032,4,1
sound,pal,shape,1,image1/pal_foot.png,image2/pal_shade.png,1,64,64,25,1529.623594,1529.623594,1529.976336,1529.976286,d,3.045440958,F04,Female,25,2023-02-07_14h16.40.665,id,2022.2.3,59.90662032,4,1
sound,kan,shape,4,image1/kan_taste.png,image2/kan_liver.png,1,69,69,18,1546.601056,1546.601056,1546.925513,1546.925959,d,3.614393,F04,Female,25,2023-02-07_14h16.40.665,id,2022.2.3,59.90662032,4,1
sound,pam,shape,1,image1/pam_night.png,image2/pam_chestnut.png,1,2,2,20,215.3862095,215.3862095,215.7162083,215.7147641,k,7.278250041,F05,Female,25,2023-02-08_15h07.49.188,id,2022.2.3,58.91917186,1,0
sound,kan,shape,1,image1/kan_taste.png,image2/kan_liver.png,1,6,6,15,234.2683304,234.2683304,234.5996469,234.5981326,k,3.094855208,F05,Female,25,2023-02-08_15h07.49.188,id,2022.2.3,58.91917186,1,0
sound,pam,shape,5,image1/pam_night.png,image2/pam_chestnut.png,1,12,12,24,255.7968177,255.7968177,256.1482438,256.1482541,d,3.063153583,F05,Female,25,2023-02-08_15h07.49.188,id,2022.2.3,58.91917186,1,1
sound,kan,shape,2,image1/kan_taste.png,image2/kan_liver.png,1,13,13,16,259.4050273,259.4050273,259.7164166,259.716702,d,7.547963875,F05,Female,25,2023-02-08_15h07.49.188,id,2022.2.3,58.91917186,1,1
sound,pam,shape,2,image1/pam_night.png,image2/pam_chestnut.png,1,15,15,21,270.9362496,270.9362496,271.2667821,271.2649572,k,2.963647375,F05,Female,25,2023-02-08_15h07.49.188,id,2022.2.3,58.91917186,1,0
sound,pam,shape,3,image1/pam_night.png,image2/pam_chestnut.png,1,17,17,22,277.9508106,277.9508106,278.2830806,278.2816175,d,4.176770041,F05,Female,25,2023-02-08_15h07.49.188,id,2022.2.3,58.91917186,1,1
sound,pal,shape,5,image1/pal_foot.png,image2/pal_shade.png,1,27,27,29,323.4903905,323.4903905,323.8337782,323.8320079,d,3.927625124,F05,Female,25,2023-02-08_15h07.49.188,id,2022.2.3,58.91917186,1,1
sound,pal,shape,3,image1/pal_foot.png,image2/pal_shade.png,1,28,28,27,327.9153768,327.9153768,328.281944,328.2836123,d,3.089916166,F05,Female,25,2023-02-08_15h07.49.188,id,2022.2.3,58.91917186,1,1
sound,pam,shape,4,image1/pam_night.png,image2/pam_chestnut.png,1,32,32,23,341.8017657,341.8017657,342.1338575,342.1319652,d,3.424645875,F05,Female,25,2023-02-08_15h07.49.188,id,2022.2.3,58.91917186,1,1
sound,kan,shape,4,image1/kan_taste.png,image2/kan_liver.png,1,39,39,18,367.1220584,367.1220584,367.4336553,367.4337902,d,3.495720749,F05,Female,25,2023-02-08_15h07.49.188,id,2022.2.3,58.91917186,1,1
sound,kan,shape,3,image1/kan_taste.png,image2/kan_liver.png,1,43,43,17,382.5551815,382.5551815,382.8839998,382.8821329,d,5.39890725,F05,Female,25,2023-02-08_15h07.49.188,id,2022.2.3,58.91917186,1,1
sound,kan,shape,5,image1/kan_taste.png,image2/kan_liver.png,1,44,44,19,388.4630305,388.4630305,388.7837554,388.7836849,d,3.739714792,F05,Female,25,2023-02-08_15h07.49.188,id,2022.2.3,58.91917186,1,1
sound,pal,shape,4,image1/pal_foot.png,image2/pal_shade.png,1,56,56,28,435.4093124,435.4093124,435.7658439,435.76626220000003,d,3.364203666,F05,Female,25,2023-02-08_15h07.49.188,id,2022.2.3,58.91917186,1,1
sound,pal,shape,1,image1/pal_foot.png,image2/pal_shade.png,1,57,57,25,439.2813208,439.2813208,439.6495258,439.6509589,k,8.916293208,F05,Female,25,2023-02-08_15h07.49.188,id,2022.2.3,58.91917186,1,0
sound,pal,shape,2,image1/pal_foot.png,image2/pal_shade.png,1,64,64,26,469.9717874,469.9717874,470.3327242,470.3343843,k,10.45797862,F05,Female,25,2023-02-08_15h07.49.188,id,2022.2.3,58.91917186,1,0
sound,pal,shape,1,image1/pal_foot.png,image2/pal_shade.png,1,3,3,25,561.0437778,561.0437778,561.3998969,561.4003422,d,4.403949166,F05,Female,25,2023-02-08_15h07.49.188,id,2022.2.3,58.91917186,2,1
sound,pal,shape,2,image1/pal_foot.png,image2/pal_shade.png,1,8,8,26,578.6404628,578.6404628,579.0002344,579.0019446,k,4.181553375,F05,Female,25,2023-02-08_15h07.49.188,id,2022.2.3,58.91917186,2,0
sound,pam,shape,3,image1/pam_night.png,image2/pam_chestnut.png,1,19,19,22,615.7926134,615.7926134,616.1350436,616.1336717,d,5.338420916,F05,Female,25,2023-02-08_15h07.49.188,id,2022.2.3,58.91917186,2,1
sound,pal,shape,5,image1/pal_foot.png,image2/pal_shade.png,1,23,23,29,633.0075378,633.0075378,633.3670541,633.3689517,d,5.175669291,F05,Female,25,2023-02-08_15h07.49.188,id,2022.2.3,58.91917186,2,1
sound,kan,shape,5,image1/kan_taste.png,image2/kan_liver.png,1,31,31,19,664.1259558,664.1259558,664.4519287,664.4520285,d,2.729744667,F05,Female,25,2023-02-08_15h07.49.188,id,2022.2.3,58.91917186,2,1
sound,kan,shape,2,image1/kan_taste.png,image2/kan_liver.png,1,35,35,16,676.4698146,676.4698146,676.7852544,676.7859386,d,3.508593791,F05,Female,25,2023-02-08_15h07.49.188,id,2022.2.3,58.91917186,2,1
sound,kan,shape,4,image1/kan_taste.png,image2/kan_liver.png,1,36,36,18,680.4829606,680.4829606,680.8025109,680.8024758,d,2.978944958,F05,Female,25,2023-02-08_15h07.49.188,id,2022.2.3,58.91917186,2,1
sound,pal,shape,4,image1/pal_foot.png,image2/pal_shade.png,1,42,42,28,699.7564657,699.7564657,700.117358,700.1191925,d,2.961848625,F05,Female,25,2023-02-08_15h07.49.188,id,2022.2.3,58.91917186,2,1
sound,pam,shape,2,image1/pam_night.png,image2/pam_chestnut.png,1,43,43,21,703.2547769,703.2547769,703.5856137,703.5839133,d,2.677837374,F05,Female,25,2023-02-08_15h07.49.188,id,2022.2.3,58.91917186,2,1
sound,pam,shape,4,image1/pam_night.png,image2/pam_chestnut.png,1,50,50,23,726.8878104,726.8878104,727.2339824,727.2341712,d,3.870025041,F05,Female,25,2023-02-08_15h07.49.188,id,2022.2.3,58.91917186,2,1
sound,pam,shape,1,image1/pam_night.png,image2/pam_chestnut.png,1,56,56,20,752.520631,752.520631,752.8522869,752.8510912,k,3.119025125,F05,Female,25,2023-02-08_15h07.49.188,id,2022.2.3,58.91917186,2,0
sound,pal,shape,3,image1/pal_foot.png,image2/pal_shade.png,1,59,59,27,762.9086574,762.9086574,763.2508325,763.251274,d,3.059985708,F05,Female,25,2023-02-08_15h07.49.188,id,2022.2.3,58.91917186,2,1
sound,pam,shape,5,image1/pam_night.png,image2/pam_chestnut.png,1,63,63,24,776.3033306,776.3033306,776.6358511,776.6343745,d,3.931584458,F05,Female,25,2023-02-08_15h07.49.188,id,2022.2.3,58.91917186,2,1
sound,kan,shape,3,image1/kan_taste.png,image2/kan_liver.png,1,70,70,17,801.120689,801.120689,801.4360161,801.4362975,d,2.848773833,F05,Female,25,2023-02-08_15h07.49.188,id,2022.2.3,58.91917186,2,1
sound,kan,shape,1,image1/kan_taste.png,image2/kan_liver.png,1,72,72,15,808.3905302,808.3905302,808.7028657,808.7027373,d,2.767396916,F05,Female,25,2023-02-08_15h07.49.188,id,2022.2.3,58.91917186,2,1
sound,pal,shape,3,image1/pal_foot.png,image2/pal_shade.png,1,22,22,27,896.2810687,896.2810687,896.619868,896.6181429,d,3.083445583,F05,Female,25,2023-02-08_15h07.49.188,id,2022.2.3,58.91917186,3,1
sound,pam,shape,3,image1/pam_night.png,image2/pam_chestnut.png,1,23,23,22,899.8710232,899.8710232,900.2031704,900.2020679,d,2.619364666,F05,Female,25,2023-02-08_15h07.49.188,id,2022.2.3,58.91917186,3,1
sound,kan,shape,4,image1/kan_taste.png,image2/kan_liver.png,1,42,42,18,965.1600246,965.1600246,965.4702718,965.4703017,d,2.749267875,F05,Female,25,2023-02-08_15h07.49.188,id,2022.2.3,58.91917186,3,1
sound,pal,shape,1,image1/pal_foot.png,image2/pal_shade.png,1,45,45,25,974.5611628,974.5611628,974.9035632,974.9020997,k,3.143389583,F05,Female,25,2023-02-08_15h07.49.188,id,2022.2.3,58.91917186,3,0
sound,pal,shape,4,image1/pal_foot.png,image2/pal_shade.png,1,46,46,28,978.1999656,978.1999656,978.5520157,978.5522876,d,4.82087775,F05,Female,25,2023-02-08_15h07.49.188,id,2022.2.3,58.91917186,3,1
sound,pam,shape,5,image1/pam_night.png,image2/pam_chestnut.png,1,49,49,24,991.7907792,991.7907792,992.1203287,992.1187675,d,2.812818541,F05,Female,25,2023-02-08_15h07.49.188,id,2022.2.3,58.91917186,3,1
sound,kan,shape,5,image1/kan_taste.png,image2/kan_liver.png,1,55,55,19,1011.058998,1011.058998,1011.370389,1011.37072,d,3.091385833,F05,Female,25,2023-02-08_15h07.49.188,id,2022.2.3,58.91917186,3,1
sound,kan,shape,1,image1/kan_taste.png,image2/kan_liver.png,1,59,59,15,1024.52001,1024.52001,1024.837102,1024.837337,d,3.585339291,F05,Female,25,2023-02-08_15h07.49.188,id,2022.2.3,58.91917186,3,1
sound,kan,shape,2,image1/kan_taste.png,image2/kan_liver.png,1,61,61,16,1031.95899,1031.95899,1032.287663,1032.28547,d,3.723006917,F05,Female,25,2023-02-08_15h07.49.188,id,2022.2.3,58.91917186,3,1
sound,pam,shape,1,image1/pam_night.png,image2/pam_chestnut.png,1,62,62,20,1036.191147,1036.191147,1036.520688,1036.519043,d,3.173401499,F05,Female,25,2023-02-08_15h07.49.188,id,2022.2.3,58.91917186,3,1
sound,pam,shape,4,image1/pam_night.png,image2/pam_chestnut.png,1,63,63,23,1039.862428,1039.862428,1040.20394,1040.202353,d,2.831992375,F05,Female,25,2023-02-08_15h07.49.188,id,2022.2.3,58.91917186,3,1
sound,kan,shape,3,image1/kan_taste.png,image2/kan_liver.png,1,66,66,17,1049.650023,1049.650023,1049.970584,1049.97106,k,2.504034416,F05,Female,25,2023-02-08_15h07.49.188,id,2022.2.3,58.91917186,3,0
sound,pam,shape,2,image1/pam_night.png,image2/pam_chestnut.png,1,69,69,21,1059.405136,1059.405136,1059.737532,1059.735748,d,3.117975667,F05,Female,25,2023-02-08_15h07.49.188,id,2022.2.3,58.91917186,3,1
sound,pal,shape,5,image1/pal_foot.png,image2/pal_shade.png,1,70,70,29,1063.014995,1063.014995,1063.354104,1063.352472,d,2.626245083,F05,Female,25,2023-02-08_15h07.49.188,id,2022.2.3,58.91917186,3,1
sound,pal,shape,2,image1/pal_foot.png,image2/pal_shade.png,1,71,71,26,1066.1358520000001,1066.1358520000001,1066.502434,1066.504161,d,2.255455916,F05,Female,25,2023-02-08_15h07.49.188,id,2022.2.3,58.91917186,3,1
sound,pal,shape,2,image1/pal_foot.png,image2/pal_shade.png,1,11,11,26,1144.344049,1144.344049,1144.686193,1144.686263,k,4.381750624,F05,Female,25,2023-02-08_15h07.49.188,id,2022.2.3,58.91917186,4,0
sound,kan,shape,1,image1/kan_taste.png,image2/kan_liver.png,1,19,19,15,1173.360477,1173.360477,1173.671565,1173.671562,k,3.343361124,F05,Female,25,2023-02-08_15h07.49.188,id,2022.2.3,58.91917186,4,0
sound,pal,shape,5,image1/pal_foot.png,image2/pal_shade.png,1,21,21,29,1180.398551,1180.398551,1180.753109,1180.753224,d,2.713557083,F05,Female,25,2023-02-08_15h07.49.188,id,2022.2.3,58.91917186,4,1
sound,kan,shape,3,image1/kan_taste.png,image2/kan_liver.png,1,24,24,17,1190.389516,1190.389516,1190.70484,1190.704751,d,2.960745041,F05,Female,25,2023-02-08_15h07.49.188,id,2022.2.3,58.91917186,4,1
sound,pam,shape,2,image1/pam_night.png,image2/pam_chestnut.png,1,25,25,21,1193.839639,1193.839639,1194.171242,1194.169643,d,2.756756708,F05,Female,25,2023-02-08_15h07.49.188,id,2022.2.3,58.91917186,4,1
sound,pam,shape,5,image1/pam_night.png,image2/pam_chestnut.png,1,27,27,24,1200.421779,1200.421779,1200.754625,1200.753274,d,2.533877125,F05,Female,25,2023-02-08_15h07.49.188,id,2022.2.3,58.91917186,4,1
sound,pam,shape,1,image1/pam_night.png,image2/pam_chestnut.png,1,29,29,20,1206.539026,1206.539026,1206.871518,1206.869806,d,4.358281458,F05,Female,25,2023-02-08_15h07.49.188,id,2022.2.3,58.91917186,4,1
sound,pal,shape,4,image1/pal_foot.png,image2/pal_shade.png,1,47,47,28,1266.934868,1266.934868,1267.271691,1267.270066,d,2.630466833,F05,Female,25,2023-02-08_15h07.49.188,id,2022.2.3,58.91917186,4,1
sound,pal,shape,3,image1/pal_foot.png,image2/pal_shade.png,1,52,52,27,1282.630561,1282.630561,1282.971888,1282.970212,d,4.325390833,F05,Female,25,2023-02-08_15h07.49.188,id,2022.2.3,58.91917186,4,1
sound,kan,shape,4,image1/kan_taste.png,image2/kan_liver.png,1,57,57,18,1300.327097,1300.327097,1300.638571,1300.638583,d,3.671390333,F05,Female,25,2023-02-08_15h07.49.188,id,2022.2.3,58.91917186,4,1
sound,pam,shape,3,image1/pam_night.png,image2/pam_chestnut.png,1,63,63,22,1321.240133,1321.240133,1321.572107,1321.570232,d,3.937295083,F05,Female,25,2023-02-08_15h07.49.188,id,2022.2.3,58.91917186,4,1
sound,kan,shape,2,image1/kan_taste.png,image2/kan_liver.png,1,64,64,16,1325.709513,1325.709513,1326.021948,1326.022113,d,4.224858458,F05,Female,25,2023-02-08_15h07.49.188,id,2022.2.3,58.91917186,4,1
sound,kan,shape,5,image1/kan_taste.png,image2/kan_liver.png,1,66,66,19,1333.995624,1333.995624,1334.321627,1334.32162,d,3.847422874,F05,Female,25,2023-02-08_15h07.49.188,id,2022.2.3,58.91917186,4,1
sound,pal,shape,1,image1/pal_foot.png,image2/pal_shade.png,1,71,71,25,1350.995634,1350.995634,1351.338907,1351.337236,d,3.234300125,F05,Female,25,2023-02-08_15h07.49.188,id,2022.2.3,58.91917186,4,1
sound,pam,shape,4,image1/pam_night.png,image2/pam_chestnut.png,1,74,74,23,1360.57238,1360.57238,1360.905649,1360.90386,d,2.518560083,F05,Female,25,2023-02-08_15h07.49.188,id,2022.2.3,58.91917186,4,1
sound,pam,shape,1,image1/pam_night.png,image2/pam_chestnut.png,1,1,1,20,740.0382899,740.0382899,740.3667589,740.3629185,k,8.268498916,F06,Female,22,2023-02-13_13h29.47.737,id,2022.2.3,None,1,0
sound,pam,shape,4,image1/pam_night.png,image2/pam_chestnut.png,1,5,5,23,779.4178083,779.4178083,779.7627867,779.7503413,k,4.773046624,F06,Female,22,2023-02-13_13h29.47.737,id,2022.2.3,None,1,0
sound,pal,shape,4,image1/pal_foot.png,image2/pal_shade.png,1,7,7,28,790.5793312,790.5793312,790.9132233,790.9008895,d,3.957113833,F06,Female,22,2023-02-13_13h29.47.737,id,2022.2.3,None,1,1
sound,pam,shape,5,image1/pam_night.png,image2/pam_chestnut.png,1,14,14,24,819.8255934,819.8255934,820.1630021,820.1509252,d,8.278971291,F06,Female,22,2023-02-13_13h29.47.737,id,2022.2.3,None,1,1
sound,pam,shape,3,image1/pam_night.png,image2/pam_chestnut.png,1,25,25,22,877.0566325,877.0566325,877.3802256,877.3685741,k,3.895713249,F06,Female,22,2023-02-13_13h29.47.737,id,2022.2.3,None,1,0
sound,pal,shape,3,image1/pal_foot.png,image2/pal_shade.png,1,42,42,27,941.537288,941.537288,941.8856027,941.8804225,d,17.40840396,F06,Female,22,2023-02-13_13h29.47.737,id,2022.2.3,None,1,1
sound,kan,shape,5,image1/kan_taste.png,image2/kan_liver.png,1,44,44,19,962.393399,962.393399,962.7014419,962.6971324,d,8.727173875,F06,Female,22,2023-02-13_13h29.47.737,id,2022.2.3,None,1,1
sound,kan,shape,1,image1/kan_taste.png,image2/kan_liver.png,1,48,48,15,983.5232066,983.5232066,983.8309099,983.818545,k,4.963432291,F06,Female,22,2023-02-13_13h29.47.737,id,2022.2.3,None,1,0
sound,pal,shape,5,image1/pal_foot.png,image2/pal_shade.png,1,49,49,29,988.94285,988.94285,989.2974733,989.2856185,d,3.082291749,F06,Female,22,2023-02-13_13h29.47.737,id,2022.2.3,None,1,1
sound,kan,shape,2,image1/kan_taste.png,image2/kan_liver.png,1,51,51,16,995.7265977,995.7265977,996.030885,996.0184349,k,10.35146983,F06,Female,22,2023-02-13_13h29.47.737,id,2022.2.3,None,1,0
sound,pal,shape,1,image1/pal_foot.png,image2/pal_shade.png,1,56,56,25,1033.866758,1033.866758,1034.214413,1034.202106,k,24.29751725,F06,Female,22,2023-02-13_13h29.47.737,id,2022.2.3,None,1,0
sound,kan,shape,3,image1/kan_taste.png,image2/kan_liver.png,1,59,59,17,1067.01413,1067.01413,1067.320598,1067.314458,d,5.021873541,F06,Female,22,2023-02-13_13h29.47.737,id,2022.2.3,None,1,1
sound,pal,shape,2,image1/pal_foot.png,image2/pal_shade.png,1,65,65,26,1088.779557,1088.779557,1089.114515,1089.102896,k,13.86056879,F06,Female,22,2023-02-13_13h29.47.737,id,2022.2.3,None,1,0
sound,pam,shape,2,image1/pam_night.png,image2/pam_chestnut.png,1,66,66,21,1103.137274,1103.137274,1103.464855,1103.453164,k,6.034215541,F06,Female,22,2023-02-13_13h29.47.737,id,2022.2.3,None,1,0
sound,kan,shape,4,image1/kan_taste.png,image2/kan_liver.png,1,72,72,18,1129.778135,1129.778135,1130.081659,1130.069334,d,2.590335249,F06,Female,22,2023-02-13_13h29.47.737,id,2022.2.3,None,1,1
sound,pam,shape,4,image1/pam_night.png,image2/pam_chestnut.png,1,4,4,23,1192.076039,1192.076039,1192.398752,1192.386461,k,2.72198825,F06,Female,22,2023-02-13_13h29.47.737,id,2022.2.3,None,2,0
sound,pal,shape,4,image1/pal_foot.png,image2/pal_shade.png,1,10,10,28,1223.047427,1223.047427,1223.398556,1223.387061,d,3.147581208,F06,Female,22,2023-02-13_13h29.47.737,id,2022.2.3,None,2,1
sound,pal,shape,3,image1/pal_foot.png,image2/pal_shade.png,1,11,11,27,1226.690749,1226.690749,1227.037721,1227.032098,k,2.720654166,F06,Female,22,2023-02-13_13h29.47.737,id,2022.2.3,None,2,0
sound,pam,shape,5,image1/pam_night.png,image2/pam_chestnut.png,1,14,14,24,1236.247278,1236.247278,1236.581957,1236.571133,d,9.107933624,F06,Female,22,2023-02-13_13h29.47.737,id,2022.2.3,None,2,1
sound,pal,shape,2,image1/pal_foot.png,image2/pal_shade.png,1,19,19,26,1259.146649,1259.146649,1259.499017,1259.487695,k,3.671073875,F06,Female,22,2023-02-13_13h29.47.737,id,2022.2.3,None,2,0
sound,pam,shape,3,image1/pam_night.png,image2/pam_chestnut.png,1,20,20,22,1263.339533,1263.339533,1263.665671,1263.653889,k,2.922486666,F06,Female,22,2023-02-13_13h29.47.737,id,2022.2.3,None,2,0
sound,kan,shape,3,image1/kan_taste.png,image2/kan_liver.png,1,26,26,17,1288.907922,1288.907922,1289.22079,1289.21552,d,8.293295832,F06,Female,22,2023-02-13_13h29.47.737,id,2022.2.3,None,2,1
sound,kan,shape,2,image1/kan_taste.png,image2/kan_liver.png,1,31,31,16,1314.212645,1314.212645,1314.532427,1314.520636,d,6.803697832,F06,Female,22,2023-02-13_13h29.47.737,id,2022.2.3,None,2,1
sound,pal,shape,5,image1/pal_foot.png,image2/pal_shade.png,1,38,38,29,1342.997519,1342.997519,1343.332754,1343.320473,d,5.976931166,F06,Female,22,2023-02-13_13h29.47.737,id,2022.2.3,None,2,1
sound,pam,shape,2,image1/pam_night.png,image2/pam_chestnut.png,1,41,41,21,1356.224898,1356.224898,1356.549336,1356.538773,d,3.195179582,F06,Female,22,2023-02-13_13h29.47.737,id,2022.2.3,None,2,1
sound,pam,shape,1,image1/pam_night.png,image2/pam_chestnut.png,1,46,46,20,1372.991081,1372.991081,1373.315998,1373.304678,k,4.947827916,F06,Female,22,2023-02-13_13h29.47.737,id,2022.2.3,None,2,0
sound,kan,shape,1,image1/kan_taste.png,image2/kan_liver.png,1,47,47,15,1378.448638,1378.448638,1378.755832,1378.749246,k,6.288177832,F06,Female,22,2023-02-13_13h29.47.737,id,2022.2.3,None,2,0
sound,kan,shape,5,image1/kan_taste.png,image2/kan_liver.png,1,54,54,19,1406.08786,1406.08786,1406.403675,1406.399479,k,3.960184458,F06,Female,22,2023-02-13_13h29.47.737,id,2022.2.3,None,2,0
sound,kan,shape,4,image1/kan_taste.png,image2/kan_liver.png,1,55,55,18,1410.55296,1410.55296,1410.866457,1410.854599,d,2.615956791,F06,Female,22,2023-02-13_13h29.47.737,id,2022.2.3,None,2,1
sound,pal,shape,1,image1/pal_foot.png,image2/pal_shade.png,1,66,66,25,1454.497886,1454.497886,1454.854874,1454.849874,k,10.8391745,F06,Female,22,2023-02-13_13h29.47.737,id,2022.2.3,None,2,0
sound,pal,shape,5,image1/pal_foot.png,image2/pal_shade.png,1,1,1,29,1500.103151,1500.103151,1500.439835,1500.433185,d,3.413111541,F06,Female,22,2023-02-13_13h29.47.737,id,2022.2.3,None,3,1
sound,pam,shape,4,image1/pam_night.png,image2/pam_chestnut.png,1,3,3,23,1507.154356,1507.154356,1507.488051,1507.483329,d,4.325557041,F06,Female,22,2023-02-13_13h29.47.737,id,2022.2.3,None,3,1
sound,pam,shape,2,image1/pam_night.png,image2/pam_chestnut.png,1,21,21,21,1585.291088,1585.291088,1585.617103,1585.604799,k,5.730040833,F06,Female,22,2023-02-13_13h29.47.737,id,2022.2.3,None,3,0
sound,pal,shape,3,image1/pal_foot.png,image2/pal_shade.png,1,29,29,27,1619.318853,1619.318853,1619.667157,1619.655699,d,3.618669124,F06,Female,22,2023-02-13_13h29.47.737,id,2022.2.3,None,3,1
sound,pal,shape,4,image1/pal_foot.png,image2/pal_shade.png,1,37,37,28,1647.27861,1647.27861,1647.621636,1647.617269,d,6.564211749,F06,Female,22,2023-02-13_13h29.47.737,id,2022.2.3,None,3,1
sound,kan,shape,1,image1/kan_taste.png,image2/kan_liver.png,1,41,41,15,1665.905335,1665.905335,1666.217648,1666.205968,k,4.142261583,F06,Female,22,2023-02-13_13h29.47.737,id,2022.2.3,None,3,0
sound,pam,shape,3,image1/pam_night.png,image2/pam_chestnut.png,1,50,50,22,1699.190875,1699.190875,1699.522903,1699.517532,d,4.077171666,F06,Female,22,2023-02-13_13h29.47.737,id,2022.2.3,None,3,1
sound,kan,shape,2,image1/kan_taste.png,image2/kan_liver.png,1,53,53,16,1710.017564,1710.017564,1710.322946,1710.318005,k,17.71296775,F06,Female,22,2023-02-13_13h29.47.737,id,2022.2.3,None,3,0
sound,kan,shape,4,image1/kan_taste.png,image2/kan_liver.png,1,55,55,18,1731.410903,1731.410903,1731.72364,1731.717702,d,6.877044749,F06,Female,22,2023-02-13_13h29.47.737,id,2022.2.3,None,3,1
sound,pam,shape,5,image1/pam_night.png,image2/pam_chestnut.png,1,57,57,24,1741.776951,1741.776951,1742.101335,1742.08995,d,2.605648582,F06,Female,22,2023-02-13_13h29.47.737,id,2022.2.3,None,3,1
sound,pal,shape,2,image1/pal_foot.png,image2/pal_shade.png,1,61,61,26,1756.260353,1756.260353,1756.606276,1756.601152,d,2.812077999,F06,Female,22,2023-02-13_13h29.47.737,id,2022.2.3,None,3,1
sound,kan,shape,5,image1/kan_taste.png,image2/kan_liver.png,1,64,64,19,1766.99113,1766.99113,1767.305468,1767.301469,d,4.684186916,F06,Female,22,2023-02-13_13h29.47.737,id,2022.2.3,None,3,1
sound,pam,shape,1,image1/pam_night.png,image2/pam_chestnut.png,1,65,65,20,1772.16152,1772.16152,1772.501187,1772.490359,k,3.247053458,F06,Female,22,2023-02-13_13h29.47.737,id,2022.2.3,None,3,0
sound,pal,shape,1,image1/pal_foot.png,image2/pal_shade.png,1,66,66,25,1775.904125,1775.904125,1776.251511,1776.239896,k,4.558001874,F06,Female,22,2023-02-13_13h29.47.737,id,2022.2.3,None,3,0
sound,kan,shape,3,image1/kan_taste.png,image2/kan_liver.png,1,73,73,17,1812.326046,1812.326046,1812.639892,1812.634878,d,5.081004291,F06,Female,22,2023-02-13_13h29.47.737,id,2022.2.3,None,3,1
sound,kan,shape,5,image1/kan_taste.png,image2/kan_liver.png,1,3,3,19,1863.738414,1863.738414,1864.051604,1864.040828,d,2.498275291,F06,Female,22,2023-02-13_13h29.47.737,id,2022.2.3,None,4,1
sound,pam,shape,4,image1/pam_night.png,image2/pam_chestnut.png,1,4,4,23,1866.713085,1866.713085,1867.039777,1867.035287,d,9.24462475,F06,Female,22,2023-02-13_13h29.47.737,id,2022.2.3,None,4,1
sound,pam,shape,1,image1/pam_night.png,image2/pam_chestnut.png,1,13,13,20,1905.047079,1905.047079,1905.385168,1905.37442,d,3.959373124,F06,Female,22,2023-02-13_13h29.47.737,id,2022.2.3,None,4,1
sound,pam,shape,3,image1/pam_night.png,image2/pam_chestnut.png,1,14,14,22,1909.50233,1909.50233,1909.835287,1909.824066,d,5.366618666,F06,Female,22,2023-02-13_13h29.47.737,id,2022.2.3,None,4,1
sound,pal,shape,5,image1/pal_foot.png,image2/pal_shade.png,1,31,31,29,1984.43008,1984.43008,1984.774736,1984.768948,k,5.00371225,F06,Female,22,2023-02-13_13h29.47.737,id,2022.2.3,None,4,0
sound,pal,shape,2,image1/pal_foot.png,image2/pal_shade.png,1,32,32,26,1989.924647,1989.924647,1990.285526,1990.273821,k,2.817792958,F06,Female,22,2023-02-13_13h29.47.737,id,2022.2.3,None,4,0
sound,pam,shape,5,image1/pam_night.png,image2/pam_chestnut.png,1,34,34,24,1998.873623,1998.873623,1999.218884,1999.207122,d,2.678230333,F06,Female,22,2023-02-13_13h29.47.737,id,2022.2.3,None,4,1
sound,pal,shape,4,image1/pal_foot.png,image2/pal_shade.png,1,36,36,28,2005.90354,2005.90354,2006.241462,2006.236019,k,2.783078,F06,Female,22,2023-02-13_13h29.47.737,id,2022.2.3,None,4,0
sound,pal,shape,3,image1/pal_foot.png,image2/pal_shade.png,1,37,37,27,2009.170627,2009.170627,2009.524363,2009.519111,d,2.658076583,F06,Female,22,2023-02-13_13h29.47.737,id,2022.2.3,None,4,1
sound,kan,shape,2,image1/kan_taste.png,image2/kan_liver.png,1,38,38,16,2012.375492,2012.375492,2012.691108,2012.685648,k,6.374313457,F06,Female,22,2023-02-13_13h29.47.737,id,2022.2.3,None,4,0
sound,kan,shape,4,image1/kan_taste.png,image2/kan_liver.png,1,42,42,18,2032.402629,2032.402629,2032.724492,2032.719138,k,8.918228374,F06,Female,22,2023-02-13_13h29.47.737,id,2022.2.3,None,4,0
sound,pal,shape,1,image1/pal_foot.png,image2/pal_shade.png,1,45,45,25,2048.567722,2048.567722,2048.90253,2048.892104,k,5.648871874,F06,Female,22,2023-02-13_13h29.47.737,id,2022.2.3,None,4,0
sound,kan,shape,1,image1/kan_taste.png,image2/kan_liver.png,1,52,52,15,2081.745153,2081.745153,2082.052789,2082.042658,k,3.364390666,F06,Female,22,2023-02-13_13h29.47.737,id,2022.2.3,None,4,0
sound,kan,shape,3,image1/kan_taste.png,image2/kan_liver.png,1,53,53,17,2085.590371,2085.590371,2085.919361,2085.908125,k,15.44264154,F06,Female,22,2023-02-13_13h29.47.737,id,2022.2.3,None,4,0
sound,pam,shape,2,image1/pam_night.png,image2/pam_chestnut.png,1,55,55,21,2104.902346,2104.902346,2105.236171,2105.224932,d,4.930467999,F06,Female,22,2023-02-13_13h29.47.737,id,2022.2.3,None,4,1
sound,pal,shape,1,image1/pal_foot.png,image2/pal_shade.png,1,1,1,25,679.887365,679.887365,680.22657160000006,680.2140568,k,10.33101962,F07,Female,20,2023-02-13_14h10.46.160,id,2022.2.3,None,1,0
sound,pam,shape,2,image1/pam_night.png,image2/pam_chestnut.png,1,11,11,21,740.1710361,740.1710361,740.5102141,740.4995293,d,3.103724916,F07,Female,20,2023-02-13_14h10.46.160,id,2022.2.3,None,1,1
sound,kan,shape,3,image1/kan_taste.png,image2/kan_liver.png,1,12,12,17,743.8015692,743.8015692,744.1102092,744.0997045,d,7.179959667,F07,Female,20,2023-02-13_14h10.46.160,id,2022.2.3,None,1,1
sound,pam,shape,5,image1/pam_night.png,image2/pam_chestnut.png,1,14,14,24,756.8627042,756.8627042,757.1936938,757.181972,d,4.780437083,F07,Female,20,2023-02-13_14h10.46.160,id,2022.2.3,None,1,1
sound,kan,shape,4,image1/kan_taste.png,image2/kan_liver.png,1,19,19,18,783.2209488,783.2209488,783.5319443,783.5273816,d,3.525048458,F07,Female,20,2023-02-13_14h10.46.160,id,2022.2.3,None,1,1
sound,pal,shape,5,image1/pal_foot.png,image2/pal_shade.png,1,43,43,29,881.9205005,881.9205005,882.2654852,882.2610173,k,3.805333875,F07,Female,20,2023-02-13_14h10.46.160,id,2022.2.3,None,1,0
sound,pam,shape,4,image1/pam_night.png,image2/pam_chestnut.png,1,46,46,23,895.3809675,895.3809675,895.7109812,895.6985085,d,3.857442708,F07,Female,20,2023-02-13_14h10.46.160,id,2022.2.3,None,1,1
sound,pal,shape,2,image1/pal_foot.png,image2/pal_shade.png,1,51,51,26,919.7371234,919.7371234,920.0778648,920.0654337,k,4.793721292,F07,Female,20,2023-02-13_14h10.46.160,id,2022.2.3,None,1,0
sound,pam,shape,3,image1/pam_night.png,image2/pam_chestnut.png,1,52,52,22,925.0312035,925.0312035,925.3612368,925.3496414,d,4.326571208,F07,Female,20,2023-02-13_14h10.46.160,id,2022.2.3,None,1,1
sound,kan,shape,1,image1/kan_taste.png,image2/kan_liver.png,1,55,55,15,938.7367613,938.7367613,939.0612939,939.0489632,d,3.123780208,F07,Female,20,2023-02-13_14h10.46.160,id,2022.2.3,None,1,1
sound,pal,shape,4,image1/pal_foot.png,image2/pal_shade.png,1,60,60,28,958.4268915,958.4268915,958.783112,958.778241,k,3.142806333,F07,Female,20,2023-02-13_14h10.46.160,id,2022.2.3,None,1,0
sound,pam,shape,1,image1/pam_night.png,image2/pam_chestnut.png,1,65,65,20,982.5806811,982.5806811,982.9162969,982.9114513,k,3.296995625,F07,Female,20,2023-02-13_14h10.46.160,id,2022.2.3,None,1,0
sound,kan,shape,2,image1/kan_taste.png,image2/kan_liver.png,1,70,70,16,1001.718707,1001.718707,1002.028137,1002.016846,k,4.21917475,F07,Female,20,2023-02-13_14h10.46.160,id,2022.2.3,None,1,0
sound,pal,shape,3,image1/pal_foot.png,image2/pal_shade.png,1,71,71,27,1006.401098,1006.401098,1006.744911,1006.73457,k,3.838109791,F07,Female,20,2023-02-13_14h10.46.160,id,2022.2.3,None,1,0
sound,kan,shape,5,image1/kan_taste.png,image2/kan_liver.png,1,73,73,19,1014.301056,1014.301056,1014.615554,1014.611678,d,3.142850541,F07,Female,20,2023-02-13_14h10.46.160,id,2022.2.3,None,1,1
sound,pal,shape,1,image1/pal_foot.png,image2/pal_shade.png,1,4,4,25,1066.354216,1066.354216,1066.695342,1066.682941,k,3.183402333,F07,Female,20,2023-02-13_14h10.46.160,id,2022.2.3,None,2,0
sound,kan,shape,2,image1/kan_taste.png,image2/kan_liver.png,1,7,7,16,1077.347081,1077.347081,1077.66195,1077.65118,d,3.167997458,F07,Female,20,2023-02-13_14h10.46.160,id,2022.2.3,None,2,1
sound,kan,shape,3,image1/kan_taste.png,image2/kan_liver.png,1,12,12,17,1094.748687,1094.748687,1095.067311,1095.062104,k,3.444461791,F07,Female,20,2023-02-13_14h10.46.160,id,2022.2.3,None,2,0
sound,pam,shape,2,image1/pam_night.png,image2/pam_chestnut.png,1,13,13,21,1098.682569,1098.682569,1099.012123,1099.000521,k,3.555941167,F07,Female,20,2023-02-13_14h10.46.160,id,2022.2.3,None,2,0
sound,pal,shape,3,image1/pal_foot.png,image2/pal_shade.png,1,14,14,27,1102.721546,1102.721546,1103.061939,1103.05102,k,3.079407292,F07,Female,20,2023-02-13_14h10.46.160,id,2022.2.3,None,2,0
sound,pam,shape,5,image1/pam_night.png,image2/pam_chestnut.png,1,16,16,24,1110.115286,1110.115286,1110.449459,1110.445436,d,3.151693792,F07,Female,20,2023-02-13_14h10.46.160,id,2022.2.3,None,2,1
sound,pam,shape,1,image1/pam_night.png,image2/pam_chestnut.png,1,18,18,20,1117.398729,1117.398729,1117.728763,1117.716185,k,2.766845833,F07,Female,20,2023-02-13_14h10.46.160,id,2022.2.3,None,2,0
sound,pal,shape,4,image1/pal_foot.png,image2/pal_shade.png,1,19,19,28,1120.642079,1120.642079,1120.995372,1120.983092,d,2.998868125,F07,Female,20,2023-02-13_14h10.46.160,id,2022.2.3,None,2,1
sound,kan,shape,1,image1/kan_taste.png,image2/kan_liver.png,1,38,38,15,1186.619985,1186.619985,1186.934386,1186.929219,d,4.341380416,F07,Female,20,2023-02-13_14h10.46.160,id,2022.2.3,None,2,1
sound,kan,shape,4,image1/kan_taste.png,image2/kan_liver.png,1,50,50,18,1230.975252,1230.975252,1231.296249,1231.283681,d,6.191692,F07,Female,20,2023-02-13_14h10.46.160,id,2022.2.3,None,2,1
sound,pam,shape,4,image1/pam_night.png,image2/pam_chestnut.png,1,51,51,23,1237.648422,1237.648422,1237.979342,1237.966914,d,3.460356417,F07,Female,20,2023-02-13_14h10.46.160,id,2022.2.3,None,2,1
sound,pal,shape,5,image1/pal_foot.png,image2/pal_shade.png,1,55,55,29,1252.477256,1252.477256,1252.829585,1252.817043,d,2.722969791,F07,Female,20,2023-02-13_14h10.46.160,id,2022.2.3,None,2,1
sound,pal,shape,2,image1/pal_foot.png,image2/pal_shade.png,1,62,62,26,1275.839377,1275.839377,1276.179562,1276.167974,k,2.927350583,F07,Female,20,2023-02-13_14h10.46.160,id,2022.2.3,None,2,0
sound,pam,shape,3,image1/pam_night.png,image2/pam_chestnut.png,1,65,65,22,1286.367141,1286.367141,1286.696465,1286.683893,d,3.131108667,F07,Female,20,2023-02-13_14h10.46.160,id,2022.2.3,None,2,1
sound,kan,shape,5,image1/kan_taste.png,image2/kan_liver.png,1,71,71,19,1307.353978,1307.353978,1307.668064,1307.663073,d,3.025275708,F07,Female,20,2023-02-13_14h10.46.160,id,2022.2.3,None,2,1
sound,pam,shape,4,image1/pam_night.png,image2/pam_chestnut.png,1,2,2,23,1329.754461,1329.754461,1330.09659,1330.084409,d,3.099302124,F07,Female,20,2023-02-13_14h10.46.160,id,2022.2.3,None,3,1
sound,kan,shape,1,image1/kan_taste.png,image2/kan_liver.png,1,4,4,15,1336.922307,1336.922307,1337.229993,1337.217395,k,3.712213375,F07,Female,20,2023-02-13_14h10.46.160,id,2022.2.3,None,3,0
sound,pam,shape,1,image1/pam_night.png,image2/pam_chestnut.png,1,5,5,20,1341.099212,1341.099212,1341.429981,1341.417402,k,2.70405475,F07,Female,20,2023-02-13_14h10.46.160,id,2022.2.3,None,3,0
sound,pal,shape,4,image1/pal_foot.png,image2/pal_shade.png,1,8,8,28,1351.327946,1351.327946,1351.68002,1351.668291,d,2.640926833,F07,Female,20,2023-02-13_14h10.46.160,id,2022.2.3,None,3,1
sound,pam,shape,2,image1/pam_night.png,image2/pam_chestnut.png,1,15,15,21,1374.449418,1374.449418,1374.780051,1374.767539,d,7.279483416,F07,Female,20,2023-02-13_14h10.46.160,id,2022.2.3,None,3,1
sound,kan,shape,3,image1/kan_taste.png,image2/kan_liver.png,1,16,16,17,1382.24281,1382.24281,1382.563392,1382.550892,k,3.852895,F07,Female,20,2023-02-13_14h10.46.160,id,2022.2.3,None,3,0
sound,pal,shape,2,image1/pal_foot.png,image2/pal_shade.png,1,40,40,26,1463.159989,1463.159989,1463.513754,1463.501225,d,3.997425458,F07,Female,20,2023-02-13_14h10.46.160,id,2022.2.3,None,3,1
sound,pal,shape,5,image1/pal_foot.png,image2/pal_shade.png,1,45,45,29,1482.142944,1482.142944,1482.49737,1482.485051,d,3.096168042,F07,Female,20,2023-02-13_14h10.46.160,id,2022.2.3,None,3,1
sound,kan,shape,5,image1/kan_taste.png,image2/kan_liver.png,1,48,48,19,1492.404567,1492.404567,1492.714133,1492.701634,d,2.536250166,F07,Female,20,2023-02-13_14h10.46.160,id,2022.2.3,None,3,1
sound,kan,shape,2,image1/kan_taste.png,image2/kan_liver.png,1,52,52,16,1505.498715,1505.498715,1505.81422,1505.802469,d,3.828727249,F07,Female,20,2023-02-13_14h10.46.160,id,2022.2.3,None,3,1
sound,pal,shape,1,image1/pal_foot.png,image2/pal_shade.png,1,58,58,25,1527.462545,1527.462545,1527.802556,1527.797516,k,2.727010333,F07,Female,20,2023-02-13_14h10.46.160,id,2022.2.3,None,3,0
sound,pal,shape,3,image1/pal_foot.png,image2/pal_shade.png,1,60,60,27,1533.834692,1533.834692,1534.197565,1534.185911,k,3.238408583,F07,Female,20,2023-02-13_14h10.46.160,id,2022.2.3,None,3,0
sound,kan,shape,4,image1/kan_taste.png,image2/kan_liver.png,1,68,68,18,1566.538516,1566.538516,1566.847861,1566.836304,d,4.697485458,F07,Female,20,2023-02-13_14h10.46.160,id,2022.2.3,None,3,1
sound,pam,shape,3,image1/pam_night.png,image2/pam_chestnut.png,1,69,69,22,1571.704341,1571.704341,1572.047724,1572.035157,d,3.984717,F07,Female,20,2023-02-13_14h10.46.160,id,2022.2.3,None,3,1
sound,pam,shape,5,image1/pam_night.png,image2/pam_chestnut.png,1,72,72,24,1586.071651,1586.071651,1586.402978,1586.398053,d,2.616453499,F07,Female,20,2023-02-13_14h10.46.160,id,2022.2.3,None,3,1
sound,pal,shape,2,image1/pal_foot.png,image2/pal_shade.png,1,6,6,26,1649.062088,1649.062088,1649.397968,1649.385622,k,6.353482083,F07,Female,20,2023-02-13_14h10.46.160,id,2022.2.3,None,4,0
sound,pam,shape,1,image1/pam_night.png,image2/pam_chestnut.png,1,9,9,20,1662.872889,1662.872889,1663.219759,1663.215069,k,2.694841749,F07,Female,20,2023-02-13_14h10.46.160,id,2022.2.3,None,4,0
sound,kan,shape,1,image1/kan_taste.png,image2/kan_liver.png,1,12,12,15,1673.312687,1673.312687,1673.631749,1673.619178,k,2.681092042,F07,Female,20,2023-02-13_14h10.46.160,id,2022.2.3,None,4,0
sound,pam,shape,5,image1/pam_night.png,image2/pam_chestnut.png,1,13,13,24,1676.469797,1676.469797,1676.803418,1676.798409,d,2.762114458,F07,Female,20,2023-02-13_14h10.46.160,id,2022.2.3,None,4,1
sound,pal,shape,5,image1/pal_foot.png,image2/pal_shade.png,1,14,14,29,1679.722896,1679.722896,1680.064819,1680.053913,k,2.91546375,F07,Female,20,2023-02-13_14h10.46.160,id,2022.2.3,None,4,0
sound,kan,shape,2,image1/kan_taste.png,image2/kan_liver.png,1,16,16,16,1686.571098,1686.571098,1686.886392,1686.881758,k,2.899376624,F07,Female,20,2023-02-13_14h10.46.160,id,2022.2.3,None,4,0
sound,pal,shape,4,image1/pal_foot.png,image2/pal_shade.png,1,22,22,28,1706.974506,1706.974506,1707.315174,1707.303308,k,2.786291958,F07,Female,20,2023-02-13_14h10.46.160,id,2022.2.3,None,4,0
sound,kan,shape,5,image1/kan_taste.png,image2/kan_liver.png,1,24,24,19,1713.32669,1713.32669,1713.648307,1713.635842,d,2.753704708,F07,Female,20,2023-02-13_14h10.46.160,id,2022.2.3,None,4,1
sound,pal,shape,1,image1/pal_foot.png,image2/pal_shade.png,1,27,27,25,1723.374952,1723.374952,1723.71534,1723.703426,k,3.606818875,F07,Female,20,2023-02-13_14h10.46.160,id,2022.2.3,None,4,0
sound,kan,shape,4,image1/kan_taste.png,image2/kan_liver.png,1,38,38,18,1762.677038,1762.677038,1762.986371,1762.981936,d,2.9731495,F07,Female,20,2023-02-13_14h10.46.160,id,2022.2.3,None,4,1
sound,pal,shape,3,image1/pal_foot.png,image2/pal_shade.png,1,39,39,27,1766.118945,1766.118945,1766.465535,1766.45375,d,7.739722541,F07,Female,20,2023-02-13_14h10.46.160,id,2022.2.3,None,4,1
sound,kan,shape,3,image1/kan_taste.png,image2/kan_liver.png,1,47,47,17,1799.499789,1799.499789,1799.815677,1799.803032,d,3.428660249,F07,Female,20,2023-02-13_14h10.46.160,id,2022.2.3,None,4,1
sound,pam,shape,4,image1/pam_night.png,image2/pam_chestnut.png,1,56,56,23,1831.081252,1831.081252,1831.415791,1831.403272,d,4.527907125,F07,Female,20,2023-02-13_14h10.46.160,id,2022.2.3,None,4,1
sound,pam,shape,3,image1/pam_night.png,image2/pam_chestnut.png,1,58,58,22,1840.47507,1840.47507,1840.815873,1840.803404,d,3.015687291,F07,Female,20,2023-02-13_14h10.46.160,id,2022.2.3,None,4,1
sound,pam,shape,2,image1/pam_night.png,image2/pam_chestnut.png,1,64,64,21,1861.178943,1861.178943,1861.515705,1861.504478,k,2.714004375,F07,Female,20,2023-02-13_14h10.46.160,id,2022.2.3,None,4,0
sound,kan,shape,2,image1/kan_taste.png,image2/kan_liver.png,1,8,8,16,186.9347798,186.9347798,187.2478575,187.2427026,d,3.290497083,M10,Male,23,2023-02-13_15h54.34.633,id,2022.2.3,None,1,1
sound,pam,shape,1,image1/pam_night.png,image2/pam_chestnut.png,1,12,12,20,202.912573,202.912573,203.2429745,203.2305811,d,6.084620541,M10,Male,23,2023-02-13_15h54.34.633,id,2022.2.3,None,1,1
sound,pam,shape,5,image1/pam_night.png,image2/pam_chestnut.png,1,14,14,24,213.7454764,213.7454764,214.076239,214.0639371,d,7.553760166,M10,Male,23,2023-02-13_15h54.34.633,id,2022.2.3,None,1,1
sound,pal,shape,1,image1/pal_foot.png,image2/pal_shade.png,1,30,30,25,281.7302203,281.7302203,282.0805577,282.0768204,k,3.050772041,M10,Male,23,2023-02-13_15h54.34.633,id,2022.2.3,None,1,0
sound,pal,shape,5,image1/pal_foot.png,image2/pal_shade.png,1,31,31,29,285.2807979,285.2807979,285.6432782,285.6315176,d,3.817357666,M10,Male,23,2023-02-13_15h54.34.633,id,2022.2.3,None,1,1
sound,pal,shape,3,image1/pal_foot.png,image2/pal_shade.png,1,36,36,27,302.9849444,302.9849444,303.3268829,303.3143845,k,3.025141624,M10,Male,23,2023-02-13_15h54.34.633,id,2022.2.3,None,1,0
sound,kan,shape,4,image1/kan_taste.png,image2/kan_liver.png,1,38,38,18,309.7205631,309.7205631,310.0433476,310.0317793,k,3.284406832,M10,Male,23,2023-02-13_15h54.34.633,id,2022.2.3,None,1,0
sound,pal,shape,4,image1/pal_foot.png,image2/pal_shade.png,1,40,40,28,319.6981445,319.6981445,320.0481061,320.0435564,d,3.91199175,M10,Male,23,2023-02-13_15h54.34.633,id,2022.2.3,None,1,1
sound,kan,shape,5,image1/kan_taste.png,image2/kan_liver.png,1,42,42,19,327.5878591,327.5878591,327.8982636,327.8934117,d,4.045493082,M10,Male,23,2023-02-13_15h54.34.633,id,2022.2.3,None,1,1
sound,pam,shape,3,image1/pam_night.png,image2/pam_chestnut.png,1,49,49,22,353.9499998,353.9499998,354.2829451,354.2768288,d,3.549233833,M10,Male,23,2023-02-13_15h54.34.633,id,2022.2.3,None,1,1
sound,pal,shape,2,image1/pal_foot.png,image2/pal_shade.png,1,57,57,26,381.7168266,381.7168266,382.0770664,382.0652611,d,4.021107082,M10,Male,23,2023-02-13_15h54.34.633,id,2022.2.3,None,1,1
sound,kan,shape,3,image1/kan_taste.png,image2/kan_liver.png,1,59,59,17,389.7507384,389.7507384,390.0606289,390.0480352,d,4.672220874,M10,Male,23,2023-02-13_15h54.34.633,id,2022.2.3,None,1,1
sound,kan,shape,1,image1/kan_taste.png,image2/kan_liver.png,1,61,61,15,398.3956668,398.3956668,398.7149674,398.710609,k,3.091362332,M10,Male,23,2023-02-13_15h54.34.633,id,2022.2.3,None,1,0
sound,pam,shape,4,image1/pam_night.png,image2/pam_chestnut.png,1,64,64,23,409.671899,409.671899,410.016265,410.010674,d,2.838022666,M10,Male,23,2023-02-13_15h54.34.633,id,2022.2.3,None,1,1
sound,pam,shape,2,image1/pam_night.png,image2/pam_chestnut.png,1,69,69,21,425.9629316,425.9629316,426.2939289,426.2826141,d,2.780620791,M10,Male,23,2023-02-13_15h54.34.633,id,2022.2.3,None,1,1
sound,pam,shape,1,image1/pam_night.png,image2/pam_chestnut.png,1,6,6,20,494.7814146,494.7814146,495.1109572,495.0983982,d,2.945950541,M10,Male,23,2023-02-13_15h54.34.633,id,2022.2.3,None,2,1
sound,pal,shape,3,image1/pal_foot.png,image2/pal_shade.png,1,14,14,27,521.6368468,521.6368468,521.9778168,521.9653,d,3.078354666,M10,Male,23,2023-02-13_15h54.34.633,id,2022.2.3,None,2,1
sound,kan,shape,1,image1/kan_taste.png,image2/kan_liver.png,1,17,17,15,532.2125273,532.2125273,532.5279325,532.5162653,d,3.780646791,M10,Male,23,2023-02-13_15h54.34.633,id,2022.2.3,None,2,1
sound,pal,shape,5,image1/pal_foot.png,image2/pal_shade.png,1,18,18,29,536.4518723,536.4518723,536.8115092,536.7989052,d,3.748816541,M10,Male,23,2023-02-13_15h54.34.633,id,2022.2.3,None,2,1
sound,pam,shape,5,image1/pam_night.png,image2/pam_chestnut.png,1,23,23,24,554.2343433,554.2343433,554.5778822,554.5662278,d,7.136322124,M10,Male,23,2023-02-13_15h54.34.633,id,2022.2.3,None,2,1
sound,pal,shape,1,image1/pal_foot.png,image2/pal_shade.png,1,25,25,25,565.2324746,565.2324746,565.5779278,565.5663136,k,2.8530625,M10,Male,23,2023-02-13_15h54.34.633,id,2022.2.3,None,2,0
sound,kan,shape,3,image1/kan_taste.png,image2/kan_liver.png,1,26,26,17,568.6146103,568.6146103,568.9332028,568.9280122,k,3.514345541,M10,Male,23,2023-02-13_15h54.34.633,id,2022.2.3,None,2,0
sound,pam,shape,3,image1/pam_night.png,image2/pam_chestnut.png,1,31,31,22,584.8478625,584.8478625,585.1781792,585.1656423,k,2.879274999,M10,Male,23,2023-02-13_15h54.34.633,id,2022.2.3,None,2,0
sound,pam,shape,2,image1/pam_night.png,image2/pam_chestnut.png,1,40,40,21,620.9973004,620.9973004,621.3338497,621.3284417,d,4.568664457,M10,Male,23,2023-02-13_15h54.34.633,id,2022.2.3,None,2,1
sound,pal,shape,2,image1/pal_foot.png,image2/pal_shade.png,1,46,46,26,645.1206409,645.1206409,645.4667212,645.4618614,d,4.860108083,M10,Male,23,2023-02-13_15h54.34.633,id,2022.2.3,None,2,1
sound,kan,shape,2,image1/kan_taste.png,image2/kan_liver.png,1,53,53,16,672.5559073,672.5559073,672.8668377,672.8620655,k,4.035289166,M10,Male,23,2023-02-13_15h54.34.633,id,2022.2.3,None,2,0
sound,kan,shape,4,image1/kan_taste.png,image2/kan_liver.png,1,59,59,18,699.699019,699.699019,700.012236,700.0013741,d,2.758885916,M10,Male,23,2023-02-13_15h54.34.633,id,2022.2.3,None,2,1
sound,pam,shape,4,image1/pam_night.png,image2/pam_chestnut.png,1,61,61,23,706.532438,706.532438,706.8621789,706.849874,k,5.968816625,M10,Male,23,2023-02-13_15h54.34.633,id,2022.2.3,None,2,0
sound,kan,shape,5,image1/kan_taste.png,image2/kan_liver.png,1,63,63,19,716.206821,716.206821,716.5175527,716.5122802,k,10.57840529,M10,Male,23,2023-02-13_15h54.34.633,id,2022.2.3,None,2,0
sound,pal,shape,4,image1/pal_foot.png,image2/pal_shade.png,1,69,69,28,749.6179782,749.6179782,749.9622657,749.9506836,d,6.615354791,M10,Male,23,2023-02-13_15h54.34.633,id,2022.2.3,None,2,1
sound,pal,shape,1,image1/pal_foot.png,image2/pal_shade.png,1,6,6,25,866.5211558,866.5211558,866.8795047,866.8678059,k,3.277687291,M10,Male,23,2023-02-13_15h54.34.633,id,2022.2.3,None,3,0
sound,kan,shape,4,image1/kan_taste.png,image2/kan_liver.png,1,9,9,18,877.0722454,877.0722454,877.3798127,877.3693787,d,3.366781958,M10,Male,23,2023-02-13_15h54.34.633,id,2022.2.3,None,3,1
sound,pam,shape,3,image1/pam_night.png,image2/pam_chestnut.png,1,11,11,22,884.0500829,884.0500829,884.3798131,884.368024,d,5.684203999,M10,Male,23,2023-02-13_15h54.34.633,id,2022.2.3,None,3,1
sound,pal,shape,3,image1/pal_foot.png,image2/pal_shade.png,1,12,12,27,890.2221741,890.2221741,890.5630207,890.5506539,k,3.825970249,M10,Male,23,2023-02-13_15h54.34.633,id,2022.2.3,None,3,0
sound,pal,shape,4,image1/pal_foot.png,image2/pal_shade.png,1,20,20,28,917.6892609,917.6892609,918.0298104,918.0172459,d,4.607422749,M10,Male,23,2023-02-13_15h54.34.633,id,2022.2.3,None,3,1
sound,kan,shape,3,image1/kan_taste.png,image2/kan_liver.png,1,24,24,17,931.9878631,931.9878631,932.2966255,932.2840186,d,3.715572749,M10,Male,23,2023-02-13_15h54.34.633,id,2022.2.3,None,3,1
sound,kan,shape,5,image1/kan_taste.png,image2/kan_liver.png,1,28,28,19,947.3211048,947.3211048,947.6299544,947.6190002,d,2.801298041,M10,Male,23,2023-02-13_15h54.34.633,id,2022.2.3,None,3,1
sound,pam,shape,2,image1/pam_night.png,image2/pam_chestnut.png,1,30,30,21,954.0816801,954.0816801,954.430066,954.4186154,d,4.281647625,M10,Male,23,2023-02-13_15h54.34.633,id,2022.2.3,None,3,1
sound,pam,shape,5,image1/pam_night.png,image2/pam_chestnut.png,1,31,31,24,958.860993,958.860993,959.2135167,959.2018774,d,3.021230457,M10,Male,23,2023-02-13_15h54.34.633,id,2022.2.3,None,3,1
sound,pal,shape,5,image1/pal_foot.png,image2/pal_shade.png,1,43,43,29,1002.125819,1002.125819,1002.480443,1002.469573,k,13.28596721,M10,Male,23,2023-02-13_15h54.34.633,id,2022.2.3,None,3,0
sound,pam,shape,1,image1/pam_night.png,image2/pam_chestnut.png,1,44,44,20,1015.933028,1015.933028,1016.26873,1016.263888,k,3.037565916,M10,Male,23,2023-02-13_15h54.34.633,id,2022.2.3,None,3,0
sound,pam,shape,4,image1/pam_night.png,image2/pam_chestnut.png,1,52,52,23,1045.235056,1045.235056,1045.563777,1045.551323,d,6.275386083,M10,Male,23,2023-02-13_15h54.34.633,id,2022.2.3,None,3,1
sound,kan,shape,1,image1/kan_taste.png,image2/kan_liver.png,1,59,59,15,1071.889032,1071.889032,1072.197581,1072.185275,k,4.985635082,M10,Male,23,2023-02-13_15h54.34.633,id,2022.2.3,None,3,0
sound,pal,shape,2,image1/pal_foot.png,image2/pal_shade.png,1,70,70,26,1139.356327,1139.356327,1139.714284,1139.702936,d,4.359177166,M10,Male,23,2023-02-13_15h54.34.633,id,2022.2.3,None,3,1
sound,kan,shape,2,image1/kan_taste.png,image2/kan_liver.png,1,72,72,16,1147.804185,1147.804185,1148.119546,1148.114565,d,3.875456416,M10,Male,23,2023-02-13_15h54.34.633,id,2022.2.3,None,3,1
sound,pal,shape,3,image1/pal_foot.png,image2/pal_shade.png,1,0,0,27,1189.728907,1189.728907,1190.081118,1190.06862,d,3.885977791,M10,Male,23,2023-02-13_15h54.34.633,id,2022.2.3,None,4,1
sound,pal,shape,5,image1/pal_foot.png,image2/pal_shade.png,1,7,7,29,1216.861393,1216.861393,1217.214654,1217.202044,d,2.884322666,M10,Male,23,2023-02-13_15h54.34.633,id,2022.2.3,None,4,1
sound,kan,shape,2,image1/kan_taste.png,image2/kan_liver.png,1,10,10,16,1233.043672,1233.043672,1233.354087,1233.348009,k,4.194648666,M10,Male,23,2023-02-13_15h54.34.633,id,2022.2.3,None,4,0
sound,pam,shape,1,image1/pam_night.png,image2/pam_chestnut.png,1,15,15,20,1252.802228,1252.802228,1253.131917,1253.120235,d,5.470021458,M10,Male,23,2023-02-13_15h54.34.633,id,2022.2.3,None,4,1
sound,kan,shape,3,image1/kan_taste.png,image2/kan_liver.png,1,16,16,17,1258.790007,1258.790007,1259.103847,1259.098249,d,4.593577791,M10,Male,23,2023-02-13_15h54.34.633,id,2022.2.3,None,4,1
sound,kan,shape,4,image1/kan_taste.png,image2/kan_liver.png,1,17,17,18,1263.878105,1263.878105,1264.198529,1264.186142,d,2.602680666,M10,Male,23,2023-02-13_15h54.34.633,id,2022.2.3,None,4,1
sound,pam,shape,2,image1/pam_night.png,image2/pam_chestnut.png,1,22,22,21,1279.436853,1279.436853,1279.764854,1279.752389,k,4.351842291,M10,Male,23,2023-02-13_15h54.34.633,id,2022.2.3,None,4,0
sound,kan,shape,1,image1/kan_taste.png,image2/kan_liver.png,1,26,26,15,1293.999928,1293.999928,1294.315036,1294.303823,k,6.125369957,M10,Male,23,2023-02-13_15h54.34.633,id,2022.2.3,None,4,0
sound,pam,shape,4,image1/pam_night.png,image2/pam_chestnut.png,1,27,27,23,1300.600875,1300.600875,1300.931933,1300.919579,d,4.932591416,M10,Male,23,2023-02-13_15h54.34.633,id,2022.2.3,None,4,1
sound,pal,shape,4,image1/pal_foot.png,image2/pal_shade.png,1,28,28,28,1306.016107,1306.016107,1306.365051,1306.352699,k,3.413518082,M10,Male,23,2023-02-13_15h54.34.633,id,2022.2.3,None,4,0
sound,pam,shape,3,image1/pam_night.png,image2/pam_chestnut.png,1,34,34,22,1330.982974,1330.982974,1331.332162,1331.319724,k,3.886859666,M10,Male,23,2023-02-13_15h54.34.633,id,2022.2.3,None,4,0
sound,pam,shape,5,image1/pam_night.png,image2/pam_chestnut.png,1,38,38,24,1345.300811,1345.300811,1345.631977,1345.61966,d,5.191362082,M10,Male,23,2023-02-13_15h54.34.633,id,2022.2.3,None,4,1
sound,kan,shape,5,image1/kan_taste.png,image2/kan_liver.png,1,47,47,19,1387.799616,1387.799616,1388.120494,1388.11574,d,4.065056166,M10,Male,23,2023-02-13_15h54.34.633,id,2022.2.3,None,4,1
sound,pal,shape,1,image1/pal_foot.png,image2/pal_shade.png,1,49,49,25,1396.248598,1396.248598,1396.598999,1396.586464,k,3.384136625,M10,Male,23,2023-02-13_15h54.34.633,id,2022.2.3,None,4,0
sound,pal,shape,2,image1/pal_foot.png,image2/pal_shade.png,1,57,57,26,1425.142274,1425.142274,1425.482329,1425.470541,d,4.627861124,M10,Male,23,2023-02-13_15h54.34.633,id,2022.2.3,None,4,1
sound,pam,shape,3,image1/pam_night.png,image2/pam_chestnut.png,1,2,2,22,231.0244161,231.0244161,231.3603942,231.3547795,d,3.07360975,F08,Female,21,2023-02-14_14h21.02.079,id,2022.2.3,None,1,1
sound,kan,shape,4,image1/kan_taste.png,image2/kan_liver.png,1,5,5,18,244.4455494,244.4455494,244.7589853,244.7548374,d,5.525144083,F08,Female,21,2023-02-14_14h21.02.079,id,2022.2.3,None,1,1
sound,pal,shape,2,image1/pal_foot.png,image2/pal_shade.png,1,12,12,26,276.4311714,276.4311714,276.7715635,276.7592448,k,4.232905375,F08,Female,21,2023-02-14_14h21.02.079,id,2022.2.3,None,1,0
sound,pam,shape,5,image1/pam_night.png,image2/pam_chestnut.png,1,14,14,24,285.5225956,285.5225956,285.8550637,285.8426148,d,5.247030291,F08,Female,21,2023-02-14_14h21.02.079,id,2022.2.3,None,1,1
sound,pal,shape,5,image1/pal_foot.png,image2/pal_shade.png,1,21,21,29,314.0960926,314.0960926,314.4383179,314.4269025,k,5.781682374,F08,Female,21,2023-02-14_14h21.02.079,id,2022.2.3,None,1,0
sound,pam,shape,2,image1/pam_night.png,image2/pam_chestnut.png,1,26,26,21,335.6415152,335.6415152,335.9718967,335.9605746,k,3.044464499,F08,Female,21,2023-02-14_14h21.02.079,id,2022.2.3,None,1,0
sound,pam,shape,4,image1/pam_night.png,image2/pam_chestnut.png,1,30,30,23,349.8740936,349.8740936,350.2098853,350.2054535,d,3.365077749,F08,Female,21,2023-02-14_14h21.02.079,id,2022.2.3,None,1,1
sound,pal,shape,4,image1/pal_foot.png,image2/pal_shade.png,1,31,31,28,353.7298389,353.7298389,354.0721741,354.0603324,d,3.940947583,F08,Female,21,2023-02-14_14h21.02.079,id,2022.2.3,None,1,1
sound,pal,shape,1,image1/pal_foot.png,image2/pal_shade.png,1,32,32,25,358.154413,358.154413,358.5053364,358.4929452,d,3.263151291,F08,Female,21,2023-02-14_14h21.02.079,id,2022.2.3,None,1,1
sound,pal,shape,3,image1/pal_foot.png,image2/pal_shade.png,1,42,42,27,394.946822,394.946822,395.2890079,395.2763845,k,3.171387166,F08,Female,21,2023-02-14_14h21.02.079,id,2022.2.3,None,1,0
sound,kan,shape,5,image1/kan_taste.png,image2/kan_liver.png,1,43,43,19,398.64153,398.64153,398.9558304,398.9434055,d,3.142282167,F08,Female,21,2023-02-14_14h21.02.079,id,2022.2.3,None,1,1
sound,pam,shape,1,image1/pam_night.png,image2/pam_chestnut.png,1,50,50,20,426.0929656,426.0929656,426.4263255,426.4222902,k,3.257299416,F08,Female,21,2023-02-14_14h21.02.079,id,2022.2.3,None,1,0
sound,kan,shape,2,image1/kan_taste.png,image2/kan_liver.png,1,56,56,16,449.4630591,449.4630591,449.789086,449.7772839,k,3.298277166,F08,Female,21,2023-02-14_14h21.02.079,id,2022.2.3,None,1,0
sound,kan,shape,3,image1/kan_taste.png,image2/kan_liver.png,1,62,62,17,471.0775017,471.0775017,471.38916,471.3778122,d,3.747934458,F08,Female,21,2023-02-14_14h21.02.079,id,2022.2.3,None,1,1
sound,kan,shape,1,image1/kan_taste.png,image2/kan_liver.png,1,74,74,15,516.546715,516.546715,516.8612458,516.8563379,k,3.031549542,F08,Female,21,2023-02-14_14h21.02.079,id,2022.2.3,None,1,0
sound,pam,shape,1,image1/pam_night.png,image2/pam_chestnut.png,1,2,2,20,557.4782969,557.4782969,557.8104989,557.80642,k,4.588092999,F08,Female,21,2023-02-14_14h21.02.079,id,2022.2.3,None,2,0
sound,pal,shape,3,image1/pal_foot.png,image2/pal_shade.png,1,22,22,27,627.0439762,627.0439762,627.3902501,627.378459,d,3.258259791,F08,Female,21,2023-02-14_14h21.02.079,id,2022.2.3,None,2,1
sound,kan,shape,2,image1/kan_taste.png,image2/kan_liver.png,1,23,23,16,630.8267761,630.8267761,631.140056,631.1291209,d,2.752356167,F08,Female,21,2023-02-14_14h21.02.079,id,2022.2.3,None,2,1
sound,pam,shape,2,image1/pam_night.png,image2/pam_chestnut.png,1,25,25,21,637.1436477,637.1436477,637.47881400000006,637.473455,d,3.891457291,F08,Female,21,2023-02-14_14h21.02.079,id,2022.2.3,None,2,1
sound,kan,shape,4,image1/kan_taste.png,image2/kan_liver.png,1,27,27,18,644.7138979,644.7138979,645.0283122,645.0236344,d,2.664193625,F08,Female,21,2023-02-14_14h21.02.079,id,2022.2.3,None,2,1
sound,pal,shape,1,image1/pal_foot.png,image2/pal_shade.png,1,38,38,25,683.2270585,683.2270585,683.573539,683.5609678,d,2.969293,F08,Female,21,2023-02-14_14h21.02.079,id,2022.2.3,None,2,1
sound,kan,shape,5,image1/kan_taste.png,image2/kan_liver.png,1,39,39,19,686.7250633,686.7250633,687.0404747,687.0279274,d,2.814185583,F08,Female,21,2023-02-14_14h21.02.079,id,2022.2.3,None,2,1
sound,kan,shape,3,image1/kan_taste.png,image2/kan_liver.png,1,40,40,17,690.0262794,690.0262794,690.3569729,690.3451421,d,2.507868125,F08,Female,21,2023-02-14_14h21.02.079,id,2022.2.3,None,2,1
sound,kan,shape,1,image1/kan_taste.png,image2/kan_liver.png,1,46,46,15,710.1470265,710.1470265,710.4568993,710.4444584,d,3.750304791,F08,Female,21,2023-02-14_14h21.02.079,id,2022.2.3,None,2,1
sound,pam,shape,4,image1/pam_night.png,image2/pam_chestnut.png,1,47,47,23,714.3649439,714.3649439,714.7071642,714.6946427,d,3.015930791,F08,Female,21,2023-02-14_14h21.02.079,id,2022.2.3,None,2,1
sound,pal,shape,5,image1/pal_foot.png,image2/pal_shade.png,1,51,51,29,727.4465364,727.4465364,727.7903368,727.7787746,d,2.702602708,F08,Female,21,2023-02-14_14h21.02.079,id,2022.2.3,None,2,1
sound,pal,shape,2,image1/pal_foot.png,image2/pal_shade.png,1,56,56,26,743.4660783,743.4660783,743.8070818,743.7961561,d,2.96776175,F08,Female,21,2023-02-14_14h21.02.079,id,2022.2.3,None,2,1
sound,pal,shape,4,image1/pal_foot.png,image2/pal_shade.png,1,59,59,28,753.7381039,753.7381039,754.0909402,754.0784528,d,2.878020833,F08,Female,21,2023-02-14_14h21.02.079,id,2022.2.3,None,2,1
sound,pam,shape,3,image1/pam_night.png,image2/pam_chestnut.png,1,68,68,22,782.3319141,782.3319141,782.6741662,782.661886,d,2.529871583,F08,Female,21,2023-02-14_14h21.02.079,id,2022.2.3,None,2,1
sound,pam,shape,5,image1/pam_night.png,image2/pam_chestnut.png,1,71,71,24,791.8051427,791.8051427,792.1459952,792.1409573,d,3.906154875,F08,Female,21,2023-02-14_14h21.02.079,id,2022.2.3,None,2,1
sound,pal,shape,5,image1/pal_foot.png,image2/pal_shade.png,1,2,2,29,816.7563508,816.7563508,817.0908042,817.0785418,d,2.713971458,F08,Female,21,2023-02-14_14h21.02.079,id,2022.2.3,None,3,1
sound,pal,shape,4,image1/pal_foot.png,image2/pal_shade.png,1,4,4,28,822.9616472,822.9616472,823.3075195,823.2967901,d,2.796638166,F08,Female,21,2023-02-14_14h21.02.079,id,2022.2.3,None,3,1
sound,pam,shape,4,image1/pam_night.png,image2/pam_chestnut.png,1,15,15,23,860.7488055,860.7488055,861.091178,861.0803825,d,3.043255833,F08,Female,21,2023-02-14_14h21.02.079,id,2022.2.3,None,3,1
sound,kan,shape,1,image1/kan_taste.png,image2/kan_liver.png,1,28,28,15,906.2092068,906.2092068,906.5249344,906.5131209,k,4.567552,F08,Female,21,2023-02-14_14h21.02.079,id,2022.2.3,None,3,0
sound,pal,shape,1,image1/pal_foot.png,image2/pal_shade.png,1,32,32,25,921.4448545,921.4448545,921.7916425,921.7792232,d,3.036064458,F08,Female,21,2023-02-14_14h21.02.079,id,2022.2.3,None,3,1
sound,pam,shape,2,image1/pam_night.png,image2/pam_chestnut.png,1,35,35,21,931.3963103,931.3963103,931.7248564,931.7122678,d,2.754728,F08,Female,21,2023-02-14_14h21.02.079,id,2022.2.3,None,3,1
sound,kan,shape,3,image1/kan_taste.png,image2/kan_liver.png,1,38,38,17,941.2682449,941.2682449,941.5790952,941.5748318,d,2.678039833,F08,Female,21,2023-02-14_14h21.02.079,id,2022.2.3,None,3,1
sound,pam,shape,5,image1/pam_night.png,image2/pam_chestnut.png,1,42,42,24,955.0257775,955.0257775,955.3581,955.3455616,d,4.040430542,F08,Female,21,2023-02-14_14h21.02.079,id,2022.2.3,None,3,1
sound,pal,shape,3,image1/pal_foot.png,image2/pal_shade.png,1,48,48,27,974.9001586,974.9001586,975.2414752,975.2289124,d,3.222641666,F08,Female,21,2023-02-14_14h21.02.079,id,2022.2.3,None,3,1
sound,pam,shape,3,image1/pam_night.png,image2/pam_chestnut.png,1,49,49,22,978.6275413,978.6275413,978.958132,978.9468918,d,2.802601416,F08,Female,21,2023-02-14_14h21.02.079,id,2022.2.3,None,3,1
sound,pal,shape,2,image1/pal_foot.png,image2/pal_shade.png,1,53,53,26,992.0167513,992.0167513,992.3581954,992.3456406,d,2.92031975,F08,Female,21,2023-02-14_14h21.02.079,id,2022.2.3,None,3,1
sound,pam,shape,1,image1/pam_night.png,image2/pam_chestnut.png,1,59,59,20,1013.38373,1013.38373,1013.725422,1013.712861,d,4.527141916,F08,Female,21,2023-02-14_14h21.02.079,id,2022.2.3,None,3,1
sound,kan,shape,4,image1/kan_taste.png,image2/kan_liver.png,1,67,67,18,1041.238259,1041.238259,1041.562495,1041.558819,d,2.798463958,F08,Female,21,2023-02-14_14h21.02.079,id,2022.2.3,None,3,1
sound,kan,shape,2,image1/kan_taste.png,image2/kan_liver.png,1,69,69,16,1047.481713,1047.481713,1047.792101,1047.779529,k,3.098523833,F08,Female,21,2023-02-14_14h21.02.079,id,2022.2.3,None,3,0
sound,kan,shape,5,image1/kan_taste.png,image2/kan_liver.png,1,72,72,19,1057.033815,1057.033815,1057.345975,1057.341873,d,2.619983042,F08,Female,21,2023-02-14_14h21.02.079,id,2022.2.3,None,3,1
sound,pal,shape,1,image1/pal_foot.png,image2/pal_shade.png,1,4,4,25,1109.23592,1109.23592,1109.579551,1109.575635,k,2.4852215,F08,Female,21,2023-02-14_14h21.02.079,id,2022.2.3,None,4,0
sound,kan,shape,5,image1/kan_taste.png,image2/kan_liver.png,1,6,6,19,1115.549423,1115.549423,1115.859163,1115.846879,d,2.751818792,F08,Female,21,2023-02-14_14h21.02.079,id,2022.2.3,None,4,1
sound,kan,shape,2,image1/kan_taste.png,image2/kan_liver.png,1,7,7,16,1118.78922,1118.78922,1119.113015,1119.108903,k,3.159700583,F08,Female,21,2023-02-14_14h21.02.079,id,2022.2.3,None,4,0
sound,pal,shape,5,image1/pal_foot.png,image2/pal_shade.png,1,15,15,29,1144.23535,1144.23535,1144.579999,1144.575763,d,2.443750541,F08,Female,21,2023-02-14_14h21.02.079,id,2022.2.3,None,4,1
sound,pam,shape,2,image1/pam_night.png,image2/pam_chestnut.png,1,27,27,21,1180.89589,1180.89589,1181.225871,1181.215037,d,3.248878999,F08,Female,21,2023-02-14_14h21.02.079,id,2022.2.3,None,4,1
sound,pam,shape,1,image1/pam_night.png,image2/pam_chestnut.png,1,31,31,20,1194.65513,1194.65513,1194.99755,1194.992857,d,3.102646791,F08,Female,21,2023-02-14_14h21.02.079,id,2022.2.3,None,4,1
sound,pam,shape,4,image1/pam_night.png,image2/pam_chestnut.png,1,37,37,23,1214.307262,1214.307262,1214.642839,1214.630852,d,3.217009125,F08,Female,21,2023-02-14_14h21.02.079,id,2022.2.3,None,4,1
sound,kan,shape,1,image1/kan_taste.png,image2/kan_liver.png,1,38,38,15,1218.051433,1218.051433,1218.359351,1218.348774,d,2.771208833,F08,Female,21,2023-02-14_14h21.02.079,id,2022.2.3,None,4,1
sound,pam,shape,5,image1/pam_night.png,image2/pam_chestnut.png,1,41,41,24,1227.95349,1227.95349,1228.292778,1228.281166,d,2.873552416,F08,Female,21,2023-02-14_14h21.02.079,id,2022.2.3,None,4,1
sound,kan,shape,4,image1/kan_taste.png,image2/kan_liver.png,1,42,42,18,1231.348957,1231.348957,1231.664278,1231.659655,d,2.6968645,F08,Female,21,2023-02-14_14h21.02.079,id,2022.2.3,None,4,1
sound,kan,shape,3,image1/kan_taste.png,image2/kan_liver.png,1,50,50,17,1256.205509,1256.205509,1256.514882,1256.509869,d,2.52497625,F08,Female,21,2023-02-14_14h21.02.079,id,2022.2.3,None,4,1
sound,pam,shape,3,image1/pam_night.png,image2/pam_chestnut.png,1,54,54,22,1268.186126,1268.186126,1268.526485,1268.514642,d,2.704758458,F08,Female,21,2023-02-14_14h21.02.079,id,2022.2.3,None,4,1
sound,pal,shape,2,image1/pal_foot.png,image2/pal_shade.png,1,61,61,26,1290.04898,1290.04898,1290.397307,1290.393127,d,2.756816083,F08,Female,21,2023-02-14_14h21.02.079,id,2022.2.3,None,4,1
sound,pal,shape,4,image1/pal_foot.png,image2/pal_shade.png,1,64,64,28,1299.768485,1299.768485,1300.109751,1300.097945,d,2.690780375,F08,Female,21,2023-02-14_14h21.02.079,id,2022.2.3,None,4,1
sound,pal,shape,3,image1/pal_foot.png,image2/pal_shade.png,1,65,65,27,1302.941594,1302.941594,1303.293061,1303.281332,d,2.653192624,F08,Female,21,2023-02-14_14h21.02.079,id,2022.2.3,None,4,1
sound,kan,shape,2,image1/kan_taste.png,image2/kan_liver.png,1,4,4,16,1016.727918,1016.727918,1017.035801,1017.023924,k,11.13106912,F09,Female,21,2023-02-14_17h10.24.186,id,2022.2.3,None,1,0
sound,pam,shape,3,image1/pam_night.png,image2/pam_chestnut.png,1,6,6,22,1040.649915,1040.649915,1041.002651,1040.9903,k,12.91886992,F09,Female,21,2023-02-14_17h10.24.186,id,2022.2.3,None,1,0
sound,pal,shape,1,image1/pal_foot.png,image2/pal_shade.png,1,9,9,25,1061.590281,1061.590281,1061.936281,1061.923732,d,30.53174317,F09,Female,21,2023-02-14_17h10.24.186,id,2022.2.3,None,1,1
sound,kan,shape,1,image1/kan_taste.png,image2/kan_liver.png,1,20,20,15,1148.616004,1148.616004,1148.936684,1148.924189,k,2.858802791,F09,Female,21,2023-02-14_17h10.24.186,id,2022.2.3,None,1,0
sound,pam,shape,4,image1/pam_night.png,image2/pam_chestnut.png,1,26,26,23,1173.576622,1173.576622,1173.908702,1173.903469,k,14.25938387,F09,Female,21,2023-02-14_17h10.24.186,id,2022.2.3,None,1,0
sound,pal,shape,2,image1/pal_foot.png,image2/pal_shade.png,1,31,31,26,1215.791902,1215.791902,1216.136839,1216.124323,d,3.221789291,F09,Female,21,2023-02-14_17h10.24.186,id,2022.2.3,None,1,1
sound,pam,shape,5,image1/pam_night.png,image2/pam_chestnut.png,1,45,45,24,1295.270384,1295.270384,1295.603821,1295.591231,k,14.97323708,F09,Female,21,2023-02-14_17h10.24.186,id,2022.2.3,None,1,0
sound,kan,shape,4,image1/kan_taste.png,image2/kan_liver.png,1,47,47,18,1314.080619,1314.080619,1314.403951,1314.391416,k,2.819903666,F09,Female,21,2023-02-14_17h10.24.186,id,2022.2.3,None,1,0
sound,pal,shape,5,image1/pal_foot.png,image2/pal_shade.png,1,49,49,29,1320.601604,1320.601604,1320.953931,1320.942675,k,2.771470999,F09,Female,21,2023-02-14_17h10.24.186,id,2022.2.3,None,1,0
sound,pam,shape,1,image1/pam_night.png,image2/pam_chestnut.png,1,53,53,20,1334.855732,1334.855732,1335.187413,1335.17497,k,10.31360154,F09,Female,21,2023-02-14_17h10.24.186,id,2022.2.3,None,1,0
sound,pal,shape,3,image1/pal_foot.png,image2/pal_shade.png,1,57,57,27,1364.284763,1364.284763,1364.637598,1364.625932,k,8.438242708,F09,Female,21,2023-02-14_17h10.24.186,id,2022.2.3,None,1,0
sound,kan,shape,5,image1/kan_taste.png,image2/kan_liver.png,1,62,62,19,1393.326564,1393.326564,1393.642748,1393.637855,k,3.436041625,F09,Female,21,2023-02-14_17h10.24.186,id,2022.2.3,None,1,0
sound,pal,shape,4,image1/pal_foot.png,image2/pal_shade.png,1,65,65,28,1403.890506,1403.890506,1404.237912,1404.225516,d,9.665575208,F09,Female,21,2023-02-14_17h10.24.186,id,2022.2.3,None,1,1
sound,pam,shape,2,image1/pam_night.png,image2/pam_chestnut.png,1,70,70,21,1431.20637,1431.20637,1431.541839,1431.538112,k,9.272925249,F09,Female,21,2023-02-14_17h10.24.186,id,2022.2.3,None,1,0
sound,kan,shape,3,image1/kan_taste.png,image2/kan_liver.png,1,72,72,17,1444.477066,1444.477066,1444.804472,1444.791974,k,3.221774624,F09,Female,21,2023-02-14_17h10.24.186,id,2022.2.3,None,1,0
sound,pam,shape,2,image1/pam_night.png,image2/pam_chestnut.png,1,0,0,21,1500.663289,1500.663289,1501.004857,1500.993949,k,5.974014166,F09,Female,21,2023-02-14_17h10.24.186,id,2022.2.3,None,2,0
sound,kan,shape,4,image1/kan_taste.png,image2/kan_liver.png,1,10,10,18,1545.255872,1545.255872,1545.575732,1545.571679,d,4.018904499,F09,Female,21,2023-02-14_17h10.24.186,id,2022.2.3,None,2,1
sound,kan,shape,3,image1/kan_taste.png,image2/kan_liver.png,1,11,11,17,1549.769986,1549.769986,1550.093416,1550.088459,d,3.991021,F09,Female,21,2023-02-14_17h10.24.186,id,2022.2.3,None,2,1
sound,pam,shape,1,image1/pam_night.png,image2/pam_chestnut.png,1,12,12,20,1554.258293,1554.258293,1554.588405,1554.575941,k,6.559743999,F09,Female,21,2023-02-14_17h10.24.186,id,2022.2.3,None,2,0
sound,pal,shape,2,image1/pal_foot.png,image2/pal_shade.png,1,15,15,26,1572.299141,1572.299141,1572.638594,1572.626343,d,2.899901041,F09,Female,21,2023-02-14_17h10.24.186,id,2022.2.3,None,2,1
sound,pal,shape,5,image1/pal_foot.png,image2/pal_shade.png,1,21,21,29,1593.30954,1593.30954,1593.655458,1593.644042,d,4.333872333,F09,Female,21,2023-02-14_17h10.24.186,id,2022.2.3,None,2,1
sound,kan,shape,1,image1/kan_taste.png,image2/kan_liver.png,1,24,24,15,1605.680485,1605.680485,1605.988696,1605.978106,k,2.789192833,F09,Female,21,2023-02-14_17h10.24.186,id,2022.2.3,None,2,0
sound,pam,shape,3,image1/pam_night.png,image2/pam_chestnut.png,1,37,37,22,1662.564917,1662.564917,1662.905731,1662.893968,d,8.206371041,F09,Female,21,2023-02-14_17h10.24.186,id,2022.2.3,None,2,1
sound,pal,shape,4,image1/pal_foot.png,image2/pal_shade.png,1,46,46,28,1706.649649,1706.649649,1706.994999,1706.989211,d,2.926075541,F09,Female,21,2023-02-14_17h10.24.186,id,2022.2.3,None,2,1
sound,pam,shape,4,image1/pam_night.png,image2/pam_chestnut.png,1,49,49,23,1717.659613,1717.659613,1717.993965,1717.989234,d,3.510835541,F09,Female,21,2023-02-14_17h10.24.186,id,2022.2.3,None,2,1
sound,pam,shape,5,image1/pam_night.png,image2/pam_chestnut.png,1,50,50,24,1721.664857,1721.664857,1722.006055,1721.993834,d,3.05419425,F09,Female,21,2023-02-14_17h10.24.186,id,2022.2.3,None,2,1
sound,kan,shape,5,image1/kan_taste.png,image2/kan_liver.png,1,63,63,19,1781.07504,1781.07504,1781.389489,1781.378602,d,3.512848708,F09,Female,21,2023-02-14_17h10.24.186,id,2022.2.3,None,2,1
sound,pal,shape,1,image1/pal_foot.png,image2/pal_shade.png,1,70,70,25,1814.043537,1814.043537,1814.395227,1814.389729,k,2.835517708,F09,Female,21,2023-02-14_17h10.24.186,id,2022.2.3,None,2,0
sound,pal,shape,3,image1/pal_foot.png,image2/pal_shade.png,1,71,71,27,1817.375134,1817.375134,1817.739812,1817.727388,d,2.799770791,F09,Female,21,2023-02-14_17h10.24.186,id,2022.2.3,None,2,1
sound,kan,shape,2,image1/kan_taste.png,image2/kan_liver.png,1,74,74,16,1827.047243,1827.047243,1827.356506,1827.345499,k,2.706509916,F09,Female,21,2023-02-14_17h10.24.186,id,2022.2.3,None,2,0
sound,pal,shape,5,image1/pal_foot.png,image2/pal_shade.png,1,4,4,29,1870.248142,1870.248142,1870.590235,1870.577884,d,3.691813707,F09,Female,21,2023-02-14_17h10.24.186,id,2022.2.3,None,3,1
