"","j...1","j...2","sound","image1","image2","corrAns","main_trials_1.thisTrialN","main_trials_1.thisN","main_trials_1.thisIndex","image_4.started","image_5.started","sound_2.started","key_resp_4.started","key_resp_4.keys","key_resp_4.rt","participant","gender","age","date","expName","psychopyVersion","frameRate","rep"
"1",1,1,"sound/pal_peak_step3.wav","image1/pal_foot.png","image2/pal_shade.png",1,0,0,12,135.2069907,135.2069907,135.5384612,135.537023,"k",2.955527916,"NF01","Female",22,"2023-02-08_11h34.35.902","id","2022.2.3","None",1
"2",1,1,"sound/tam_filler.wav","image1/tam_filler.png","image2/pam_H_filler.png",2,1,1,56,138.6790405,138.6790405,139.0219686,139.0203008,"d",2.474247709,"NF01","Female",22,"2023-02-08_11h34.35.902","id","2022.2.3","None",1
"3",1,1,"sound/pal_shape_step2.wav","image1/pal_foot.png","image2/pal_shade.png",1,2,2,26,141.6541854,141.6541854,142.0204549,142.0218262,"d",2.850564042,"NF01","Female",22,"2023-02-08_11h34.35.902","id","2022.2.3","None",1
"4",1,1,"sound/kam_filler.wav","image1/kam_filler.png","image2/kan_LH_filler.png",2,3,3,47,145.0530196,145.0530196,145.4036574,145.4038652,"d",2.885422083,"NF01","Female",22,"2023-02-08_11h34.35.902","id","2022.2.3","None",1
"5",1,1,"sound/pal_peak_step2.wav","image1/pal_foot.png","image2/pal_shade.png",1,4,4,11,148.4616545,148.4616545,148.8203413,148.8218651,"k",2.898430125,"NF01","Female",22,"2023-02-08_11h34.35.902","id","2022.2.3","None",1
"6",1,1,"sound/pal_shape_step5.wav","image1/pal_foot.png","image2/pal_shade.png",1,5,5,29,151.8646213,151.8646213,152.2204718,152.2204994,"d",2.913701458,"NF01","Female",22,"2023-02-08_11h34.35.902","id","2022.2.3","None",1
"7",1,1,"sound/pal_shape_step4.wav","image1/pal_foot.png","image2/pal_shade.png",1,6,6,28,155.2852834,155.2852834,155.6369646,155.6370761,"d",2.971933625,"NF01","Female",22,"2023-02-08_11h34.35.902","id","2022.2.3","None",1
"8",1,1,"sound/pang_filler.wav","image1/pang_filler.png","image2/pam_H_filler.png",2,7,7,50,158.7724404,158.7724404,159.1373345,159.138506,"d",2.923467833,"NF01","Female",22,"2023-02-08_11h34.35.902","id","2022.2.3","None",1
"9",1,1,"sound/nam_filler.wav","image1/nam_filler.png","image2/tam_filler.png",1,8,8,45,162.2359659,162.2359659,162.5718514,162.5701869,"d",2.922687083,"NF01","Female",22,"2023-02-08_11h34.35.902","id","2022.2.3","None",1
"10",1,1,"sound/pal_H_filler.wav","image1/pal_H_filler.png","image2/khal_filler.png",1,9,9,40,165.6526872,165.6526872,166.0204383,166.0220198,"d",2.928797458,"NF01","Female",22,"2023-02-08_11h34.35.902","id","2022.2.3","None",1
"11",1,1,"sound/pam_shape_step1.wav","image1/pam_night.png","image2/pam_chestnut.png",1,10,10,20,169.1226573,169.1226573,169.4704028,169.4705898,"d",3.181152084,"NF01","Female",22,"2023-02-08_11h34.35.902","id","2022.2.3","None",1
"12",1,1,"sound/pam_LH_filler.wav","image1/pam_LH_filler.png","image2/pang_filler.png",1,11,11,33,172.8143345,172.8143345,173.1550384,173.1536808,"d",3.393947417,"NF01","Female",22,"2023-02-08_11h34.35.902","id","2022.2.3","None",1
"13",1,1,"sound/nan_filler.wav","image1/nan_filler.png","image2/kan_H_filler.png",2,12,12,54,176.7534771,176.7534771,177.0537895,177.055653,"d",2.9557685,"NF01","Female",22,"2023-02-08_11h34.35.902","id","2022.2.3","None",1
"14",1,1,"sound/kan_shape_step2.wav","image1/kan_taste.png","image2/kan_liver.png",1,13,13,16,180.206231,180.206231,180.521895,180.5221355,"d",2.97013575,"NF01","Female",22,"2023-02-08_11h34.35.902","id","2022.2.3","None",1
"15",1,1,"sound/pam_shape_step5.wav","image1/pam_night.png","image2/pam_chestnut.png",1,14,14,24,183.6736481,183.6736481,184.0205187,184.0205884,"d",3.004648875,"NF01","Female",22,"2023-02-08_11h34.35.902","id","2022.2.3","None",1
"16",1,1,"sound/khal_filler.wav","image1/khal_filler.png","image2/tal_filler.png",1,15,15,73,187.2292686,187.2292686,187.5553507,187.555411,"d",2.586701625,"NF01","Female",22,"2023-02-08_11h34.35.902","id","2022.2.3","None",1
"17",1,1,"sound/khal_filler.wav","image1/khal_filler.png","image2/pal_LH_filler.png",2,16,16,57,190.3034212,190.3034212,190.6708074,190.671862,"d",2.460199375,"NF01","Female",22,"2023-02-08_11h34.35.902","id","2022.2.3","None",1
"18",1,1,"sound/tam_filler.wav","image1/tam_filler.png","image2/nam_filler.png",1,17,17,62,193.3017123,193.3017123,193.6390263,193.6372557,"d",2.536783333,"NF01","Female",22,"2023-02-08_11h34.35.902","id","2022.2.3","None",1
"19",1,1,"sound/kan_H_filler.wav","image1/kan_H_filler.png","image2/tan_filler.png",1,18,18,36,196.383745,196.383745,196.7054138,196.7055597,"d",2.674453833,"NF01","Female",22,"2023-02-08_11h34.35.902","id","2022.2.3","None",1
"20",1,1,"sound/kang_filler.wav","image1/kang_filler.png","image2/kan_H_filler.png",2,19,19,48,199.587314,199.587314,199.8873329,199.88876,"d",2.675181666,"NF01","Female",22,"2023-02-08_11h34.35.902","id","2022.2.3","None",1
"21",1,1,"sound/pam_shape_step4.wav","image1/pam_night.png","image2/pam_chestnut.png",1,20,20,23,202.7422533,202.7422533,203.072157,203.070505,"d",3.7839875,"NF01","Female",22,"2023-02-08_11h34.35.902","id","2022.2.3","None",1
"22",1,1,"sound/pal_LH_filler.wav","image1/pal_LH_filler.png","image2/pang_filler.png",1,21,21,35,207.0012564,207.0012564,207.3705901,207.3721101,"d",3.218391041,"NF01","Female",22,"2023-02-08_11h34.35.902","id","2022.2.3","None",1
"23",1,1,"sound/kam_filler.wav","image1/kam_filler.png","image2/kang_filler.png",1,22,22,69,210.7711037,210.7711037,211.1054679,211.1039718,"d",3.014442084,"NF01","Female",22,"2023-02-08_11h34.35.902","id","2022.2.3","None",1
"24",1,1,"sound/pam_H_filler.wav","image1/pam_H_filler.png","image2/pan_filler.png",1,23,23,32,214.2855287,214.2855287,214.6220379,214.6206263,"d",3.390630583,"NF01","Female",22,"2023-02-08_11h34.35.902","id","2022.2.3","None",1
"25",1,1,"sound/tal_filler.wav","image1/tal_filler.png","image2/pal_LH_filler.png",1,24,24,74,218.2144653,218.2144653,218.5208583,218.5223663,"d",2.95481075,"NF01","Female",22,"2023-02-08_11h34.35.902","id","2022.2.3","None",1
"26",1,1,"sound/khal_filler.wav","image1/khal_filler.png","image2/tal_filler.png",1,25,25,63,221.6739155,221.6739155,221.9889261,221.9889576,"d",2.683025833,"NF01","Female",22,"2023-02-08_11h34.35.902","id","2022.2.3","None",1
"27",1,1,"sound/pam_peak_step2.wav","image1/pam_night.png","image2/pam_chestnut.png",1,26,26,6,224.8586299,224.8586299,225.1888064,225.1875203,"k",2.963556709,"NF01","Female",22,"2023-02-08_11h34.35.902","id","2022.2.3","None",1
"28",1,1,"sound/pam_shape_step2.wav","image1/pam_night.png","image2/pam_chestnut.png",1,27,27,21,228.3138148,228.3138148,228.6556035,228.6539993,"d",3.066999667,"NF01","Female",22,"2023-02-08_11h34.35.902","id","2022.2.3","None",1
"29",1,1,"sound/tam_filler.wav","image1/tam_filler.png","image2/nam_filler.png",1,28,28,72,231.9056189,231.9056189,232.2388801,232.2371284,"d",3.32171125,"NF01","Female",22,"2023-02-08_11h34.35.902","id","2022.2.3","None",1
"30",1,1,"sound/pal_H_filler.wav","image1/pal_H_filler.png","image2/pan_filler.png",1,29,29,34,235.7313117,235.7313117,236.0722845,236.0706924,"d",2.970041583,"NF01","Female",22,"2023-02-08_11h34.35.902","id","2022.2.3","None",1
"31",1,1,"sound/tan_filler.wav","image1/tan_filler.png","image2/nan_filler.png",1,30,30,61,239.24044,239.24044,239.555556,239.555564,"d",2.933926708,"NF01","Female",22,"2023-02-08_11h34.35.902","id","2022.2.3","None",1
"32",1,1,"sound/kan_peak_step3.wav","image1/kan_taste.png","image2/kan_liver.png",1,31,31,2,242.6978669,242.6978669,243.0046291,243.0061382,"k",3.24138425,"NF01","Female",22,"2023-02-08_11h34.35.902","id","2022.2.3","None",1
"33",1,1,"sound/pal_peak_step4.wav","image1/pal_foot.png","image2/pal_shade.png",1,32,32,13,246.4121252,246.4121252,246.7711673,246.7727738,"k",3.019514416,"NF01","Female",22,"2023-02-08_11h34.35.902","id","2022.2.3","None",1
"34",1,1,"sound/pal_shape_step1.wav","image1/pal_foot.png","image2/pal_shade.png",1,33,33,25,249.9538675,249.9538675,250.3209118,250.3224716,"d",3.048803375,"NF01","Female",22,"2023-02-08_11h34.35.902","id","2022.2.3","None",1
"35",1,1,"sound/pam_peak_step4.wav","image1/pam_night.png","image2/pam_chestnut.png",1,34,34,8,253.5585271,253.5585271,253.9039702,253.9045786,"k",3.031631916,"NF01","Female",22,"2023-02-08_11h34.35.902","id","2022.2.3","None",1
"36",1,1,"sound/pan_filler.wav","image1/pan_filler.png","image2/pang_filler.png",1,35,35,65,257.097098,257.097098,257.4393234,257.4377422,"d",2.961439167,"NF01","Female",22,"2023-02-08_11h34.35.902","id","2022.2.3","None",1
"37",1,1,"sound/kan_peak_step5.wav","image1/kan_taste.png","image2/kan_liver.png",1,36,36,4,260.5963889,260.5963889,260.9227491,260.9225147,"k",2.974541625,"NF01","Female",22,"2023-02-08_11h34.35.902","id","2022.2.3","None",1
"38",1,1,"sound/pang_filler.wav","image1/pang_filler.png","image2/pal_H_filler.png",2,37,37,52,264.0592085,264.0592085,264.4209218,264.4226164,"d",2.950287,"NF01","Female",22,"2023-02-08_11h34.35.902","id","2022.2.3","None",1
"39",1,1,"sound/pan_filler.wav","image1/pan_filler.png","image2/pang_filler.png",1,38,38,70,267.5399002,267.5399002,267.8873917,267.8874616,"d",3.9915525,"NF01","Female",22,"2023-02-08_11h34.35.902","id","2022.2.3","None",1
"40",1,1,"sound/kan_shape_step4.wav","image1/kan_taste.png","image2/kan_liver.png",1,39,39,18,272.0771805,272.0771805,272.3889861,272.3895015,"d",3.759527959,"NF01","Female",22,"2023-02-08_11h34.35.902","id","2022.2.3","None",1
"41",1,1,"sound/pam_shape_step3.wav","image1/pam_night.png","image2/pam_chestnut.png",1,40,40,22,276.3269636,276.3269636,276.655504,276.6543651,"d",2.989342458,"NF01","Female",22,"2023-02-08_11h34.35.902","id","2022.2.3","None",1
"42",1,1,"sound/pam_peak_step1.wav","image1/pam_night.png","image2/pam_chestnut.png",1,41,41,5,279.8157683,279.8157683,280.1707033,280.1711423,"k",3.059685625,"NF01","Female",22,"2023-02-08_11h34.35.902","id","2022.2.3","None",1
"43",1,1,"sound/pal_peak_step5.wav","image1/pal_foot.png","image2/pal_shade.png",1,42,42,14,283.3978801,283.3978801,283.7394979,283.737561,"k",3.649109458,"NF01","Female",22,"2023-02-08_11h34.35.902","id","2022.2.3","None",1
"44",1,1,"sound/tam_filler.wav","image1/tam_filler.png","image2/nam_filler.png",1,43,43,67,287.5558773,287.5558773,287.9041128,287.9045969,"d",3.120854875,"NF01","Female",22,"2023-02-08_11h34.35.902","id","2022.2.3","None",1
"45",1,1,"sound/pam_peak_step3.wav","image1/pam_night.png","image2/pam_chestnut.png",1,44,44,7,291.2056266,291.2056266,291.5392383,291.5375988,"k",3.094826042,"NF01","Female",22,"2023-02-08_11h34.35.902","id","2022.2.3","None",1
"46",1,1,"sound/tan_filler.wav","image1/tan_filler.png","image2/kan_LH_filler.png",2,45,45,53,294.8208453,294.8208453,295.1558114,295.1543023,"d",2.848260958,"NF01","Female",22,"2023-02-08_11h34.35.902","id","2022.2.3","None",1
"47",1,1,"sound/kan_peak_step2.wav","image1/kan_taste.png","image2/kan_liver.png",1,46,46,1,298.1915704,298.1915704,298.5224455,298.5210129,"k",2.988339959,"NF01","Female",22,"2023-02-08_11h34.35.902","id","2022.2.3","None",1
"48",1,1,"sound/tan_filler.wav","image1/tan_filler.png","image2/nan_filler.png",1,47,47,71,301.710686,301.710686,302.0225166,302.0226629,"d",2.882578583,"NF01","Female",22,"2023-02-08_11h34.35.902","id","2022.2.3","None",1
"49",1,1,"sound/kan_LH_filler.wav","image1/kan_LH_filler.png","image2/nan_filler.png",1,48,48,37,305.0993671,305.0993671,305.4225605,305.422645,"d",2.986415583,"NF01","Female",22,"2023-02-08_11h34.35.902","id","2022.2.3","None",1
"50",1,1,"sound/kan_H_filler.wav","image1/kan_H_filler.png","image2/kam_filler.png",1,49,49,30,308.5919715,308.5919715,308.9225596,308.9210231,"d",3.712790959,"NF01","Female",22,"2023-02-08_11h34.35.902","id","2022.2.3","None",1
"51",1,1,"sound/pam_H_filler.wav","image1/pam_H_filler.png","image2/nam_filler.png",1,50,50,38,312.7947551,312.7947551,313.1543829,313.1558547,"d",3.056944667,"NF01","Female",22,"2023-02-08_11h34.35.902","id","2022.2.3","None",1
"52",1,1,"sound/kan_peak_step1.wav","image1/kan_taste.png","image2/kan_liver.png",1,51,51,0,316.4108071,316.4108071,316.7229072,316.7225917,"k",3.60505175,"NF01","Female",22,"2023-02-08_11h34.35.902","id","2022.2.3","None",1
"53",1,1,"sound/tal_filler.wav","image1/tal_filler.png","image2/khal_filler.png",1,52,52,46,320.5294391,320.5294391,320.8378209,320.8396344,"d",2.960966333,"NF01","Female",22,"2023-02-08_11h34.35.902","id","2022.2.3","None",1
"54",1,1,"sound/tal_filler.wav","image1/tal_filler.png","image2/pal_H_filler.png",2,53,53,58,323.9929949,323.9929949,324.30628,324.3060984,"d",2.957270333,"NF01","Female",22,"2023-02-08_11h34.35.902","id","2022.2.3","None",1
"55",1,1,"sound/pal_shape_step3.wav","image1/pal_foot.png","image2/pal_shade.png",1,54,54,27,327.428363,327.428363,327.7710226,327.771244,"d",3.212131125,"NF01","Female",22,"2023-02-08_11h34.35.902","id","2022.2.3","None",1
"56",1,1,"sound/kang_filler.wav","image1/kang_filler.png","image2/kam_filler.png",1,55,55,42,331.1605223,331.1605223,331.5044356,331.5049585,"d",2.962316875,"NF01","Female",22,"2023-02-08_11h34.35.902","id","2022.2.3","None",1
"57",1,1,"sound/pan_filler.wav","image1/pan_filler.png","image2/pam_LH_filler.png",2,56,56,49,334.641487,334.641487,334.9728246,334.9711583,"d",2.966003042,"NF01","Female",22,"2023-02-08_11h34.35.902","id","2022.2.3","None",1
"58",1,1,"sound/kan_shape_step5.wav","image1/kan_taste.png","image2/kan_liver.png",1,57,57,19,338.1275882,338.1275882,338.456215,338.454565,"d",6.159980416,"NF01","Female",22,"2023-02-08_11h34.35.902","id","2022.2.3","None",1
"59",1,1,"sound/pan_filler.wav","image1/pan_filler.png","image2/pal_LH_filler.png",2,58,58,51,344.7854671,344.7854671,345.1225991,345.1212385,"d",3.025349459,"NF01","Female",22,"2023-02-08_11h34.35.902","id","2022.2.3","None",1
"60",1,1,"sound/kan_LH_filler.wav","image1/kan_LH_filler.png","image2/kang_filler.png",1,59,59,31,348.3335595,348.3335595,348.6560959,348.6561634,"d",3.023158333,"NF01","Female",22,"2023-02-08_11h34.35.902","id","2022.2.3","None",1
"61",1,1,"sound/kam_filler.wav","image1/kam_filler.png","image2/kang_filler.png",2,60,60,59,351.8559525,351.8559525,352.1894292,352.1879557,"d",2.941357833,"NF01","Female",22,"2023-02-08_11h34.35.902","id","2022.2.3","None",1
"62",1,1,"sound/nan_filler.wav","image1/nan_filler.png","image2/tan_filler.png",1,61,61,44,355.3204487,355.3204487,355.6393916,355.6395701,"d",2.889614959,"NF01","Female",22,"2023-02-08_11h34.35.902","id","2022.2.3","None",1
"63",1,1,"sound/kan_shape_step1.wav","image1/kan_taste.png","image2/kan_liver.png",1,62,62,15,358.7256626,358.7256626,359.0393824,359.039577,"d",3.577633291,"NF01","Female",22,"2023-02-08_11h34.35.902","id","2022.2.3","None",1
"64",1,1,"sound/pang_filler.wav","image1/pang_filler.png","image2/pan_filler.png",1,63,63,43,362.7828562,362.7828562,363.1229398,363.1214545,"d",3.368481083,"NF01","Female",22,"2023-02-08_11h34.35.902","id","2022.2.3","None",1
"65",1,1,"sound/khal_filler.wav","image1/khal_filler.png","image2/tal_filler.png",1,64,64,68,366.6895842,366.6895842,367.0228949,367.0212497,"d",2.862698583,"NF01","Female",22,"2023-02-08_11h34.35.902","id","2022.2.3","None",1
"66",1,1,"sound/kan_shape_step3.wav","image1/kan_taste.png","image2/kan_liver.png",1,65,65,17,370.0742962,370.0742962,370.3895624,370.3895306,"d",3.272185042,"NF01","Female",22,"2023-02-08_11h34.35.902","id","2022.2.3","None",1
"67",1,1,"sound/pam_peak_step5.wav","image1/pam_night.png","image2/pam_chestnut.png",1,66,66,9,373.8398421,373.8398421,374.1727483,374.1714134,"k",3.271250333,"NF01","Female",22,"2023-02-08_11h34.35.902","id","2022.2.3","None",1
"68",1,1,"sound/pal_LH_filler.wav","image1/pal_LH_filler.png","image2/tal_filler.png",1,67,67,41,377.6432946,377.6432946,377.9561575,377.9561702,"d",3.235292042,"NF01","Female",22,"2023-02-08_11h34.35.902","id","2022.2.3","None",1
"69",1,1,"sound/pal_peak_step1.wav","image1/pal_foot.png","image2/pal_shade.png",1,68,68,10,381.3641385,381.3641385,381.7064551,381.7048039,"k",3.071683541,"NF01","Female",22,"2023-02-08_11h34.35.902","id","2022.2.3","None",1
"70",1,1,"sound/pan_filler.wav","image1/pan_filler.png","image2/pang_filler.png",2,69,69,60,384.9451035,384.9451035,385.3046755,385.3062565,"d",3.019056334,"NF01","Female",22,"2023-02-08_11h34.35.902","id","2022.2.3","None",1
"71",1,1,"sound/kan_peak_step4.wav","image1/kan_taste.png","image2/kan_liver.png",1,70,70,3,388.5297116,388.5297116,388.8383117,388.8399444,"k",3.621220541,"NF01","Female",22,"2023-02-08_11h34.35.902","id","2022.2.3","None",1
"72",1,1,"sound/pam_LH_filler.wav","image1/pam_LH_filler.png","image2/tam_filler.png",1,71,71,39,392.6550503,392.6550503,392.9727856,392.9730828,"d",3.886691083,"NF01","Female",22,"2023-02-08_11h34.35.902","id","2022.2.3","None",1
"73",1,1,"sound/kam_filler.wav","image1/kam_filler.png","image2/kang_filler.png",1,72,72,64,397.037239,397.037239,397.3730558,397.3716062,"d",2.951004083,"NF01","Female",22,"2023-02-08_11h34.35.902","id","2022.2.3","None",1
"74",1,1,"sound/tan_filler.wav","image1/tan_filler.png","image2/nan_filler.png",1,73,73,66,400.5180934,400.5180934,400.8563914,400.8548508,"d",2.908818166,"NF01","Female",22,"2023-02-08_11h34.35.902","id","2022.2.3","None",1
"75",1,1,"sound/nam_filler.wav","image1/nam_filler.png","image2/pam_LH_filler.png",2,74,74,55,403.9314155,403.9314155,404.2880702,404.2881767,"d",3.137393625,"NF01","Female",22,"2023-02-08_11h34.35.902","id","2022.2.3","None",1
"76",2,2,"sound/tam_filler.wav","image1/tam_filler.png","image2/nam_filler.png",1,0,0,72,437.6208417,437.6208417,437.9549469,437.9549908,"d",2.985511041,"NF01","Female",22,"2023-02-08_11h34.35.902","id","2022.2.3","None",2
"77",2,2,"sound/tal_filler.wav","image1/tal_filler.png","image2/pal_H_filler.png",2,1,1,58,441.1529412,441.1529412,441.4732561,441.4733088,"d",2.829169042,"NF01","Female",22,"2023-02-08_11h34.35.902","id","2022.2.3","None",2
"78",2,2,"sound/pan_filler.wav","image1/pan_filler.png","image2/pam_LH_filler.png",2,2,2,49,444.4734973,444.4734973,444.8065598,444.8050882,"d",2.943377541,"NF01","Female",22,"2023-02-08_11h34.35.902","id","2022.2.3","None",2
"79",2,2,"sound/nan_filler.wav","image1/nan_filler.png","image2/kan_H_filler.png",2,3,3,54,447.9504334,447.9504334,448.2552948,448.2567767,"d",3.423541042,"NF01","Female",22,"2023-02-08_11h34.35.902","id","2022.2.3","None",2
"80",2,2,"sound/tan_filler.wav","image1/tan_filler.png","image2/nan_filler.png",1,4,4,71,451.8789653,451.8789653,452.1900309,452.1900571,"d",2.944236083,"NF01","Female",22,"2023-02-08_11h34.35.902","id","2022.2.3","None",2
"81",2,2,"sound/pam_shape_step1.wav","image1/pam_night.png","image2/pam_chestnut.png",1,5,5,20,455.3083369,455.3083369,455.6399546,455.6385298,"d",3.922480166,"NF01","Female",22,"2023-02-08_11h34.35.902","id","2022.2.3","None",2
"82",2,2,"sound/khal_filler.wav","image1/khal_filler.png","image2/tal_filler.png",1,6,6,63,459.7642128,459.7642128,460.0717365,460.0732578,"d",2.968008667,"NF01","Female",22,"2023-02-08_11h34.35.902","id","2022.2.3","None",2
"83",2,2,"sound/pal_shape_step4.wav","image1/pal_foot.png","image2/pal_shade.png",1,7,7,28,463.2148531,463.2148531,463.5564263,463.5552525,"d",3.722210167,"NF01","Female",22,"2023-02-08_11h34.35.902","id","2022.2.3","None",2
"84",2,2,"sound/pam_shape_step5.wav","image1/pam_night.png","image2/pam_chestnut.png",1,8,8,24,467.4584201,467.4584201,467.7900761,467.7883824,"d",2.991094583,"NF01","Female",22,"2023-02-08_11h34.35.902","id","2022.2.3","None",2
"85",2,2,"sound/pam_LH_filler.wav","image1/pam_LH_filler.png","image2/pang_filler.png",1,9,9,33,470.9457113,470.9457113,471.3053068,471.3069313,"d",3.036320917,"NF01","Female",22,"2023-02-08_11h34.35.902","id","2022.2.3","None",2
"86",2,2,"sound/nan_filler.wav","image1/nan_filler.png","image2/tan_filler.png",1,10,10,44,474.5425202,474.5425202,474.8565451,474.8566531,"d",2.999517625,"NF01","Female",22,"2023-02-08_11h34.35.902","id","2022.2.3","None",2
"87",2,2,"sound/pang_filler.wav","image1/pang_filler.png","image2/pan_filler.png",1,11,11,43,478.0055141,478.0055141,478.3722052,478.3735979,"d",2.94944275,"NF01","Female",22,"2023-02-08_11h34.35.902","id","2022.2.3","None",2
"88",2,2,"sound/pal_H_filler.wav","image1/pal_H_filler.png","image2/pan_filler.png",1,12,12,34,481.4821116,481.4821116,481.8234191,481.8218549,"d",3.780188958,"NF01","Female",22,"2023-02-08_11h34.35.902","id","2022.2.3","None",2
"89",2,2,"sound/tan_filler.wav","image1/tan_filler.png","image2/kan_LH_filler.png",2,13,13,53,485.7870105,485.7870105,486.123117,486.1218369,"d",2.962211083,"NF01","Female",22,"2023-02-08_11h34.35.902","id","2022.2.3","None",2
"90",2,2,"sound/nam_filler.wav","image1/nam_filler.png","image2/pam_LH_filler.png",2,14,14,55,489.2479675,489.2479675,489.5904514,489.5885012,"d",2.93641,"NF01","Female",22,"2023-02-08_11h34.35.902","id","2022.2.3","None",2
"91",2,2,"sound/pang_filler.wav","image1/pang_filler.png","image2/pal_H_filler.png",2,15,15,52,492.6907884,492.6907884,493.0385582,493.0388396,"d",2.995832334,"NF01","Female",22,"2023-02-08_11h34.35.902","id","2022.2.3","None",2
"92",2,2,"sound/kan_H_filler.wav","image1/kan_H_filler.png","image2/kam_filler.png",1,16,16,30,496.2220649,496.2220649,496.5399641,496.5405937,"d",2.973056416,"NF01","Female",22,"2023-02-08_11h34.35.902","id","2022.2.3","None",2
"93",2,2,"sound/pam_peak_step5.wav","image1/pam_night.png","image2/pam_chestnut.png",1,17,17,9,499.6928106,499.6928106,500.0234361,500.0219746,"k",2.991666042,"NF01","Female",22,"2023-02-08_11h34.35.902","id","2022.2.3","None",2
"94",2,2,"sound/pam_H_filler.wav","image1/pam_H_filler.png","image2/pan_filler.png",1,18,18,32,503.18745,503.18745,503.5235604,503.5217705,"d",2.936770416,"NF01","Female",22,"2023-02-08_11h34.35.902","id","2022.2.3","None",2
"95",2,2,"sound/kan_peak_step5.wav","image1/kan_taste.png","image2/kan_liver.png",1,19,19,4,506.6630401,506.6630401,506.9735999,506.973649,"k",2.962782583,"NF01","Female",22,"2023-02-08_11h34.35.902","id","2022.2.3","None",2
"96",2,2,"sound/pam_shape_step2.wav","image1/pam_night.png","image2/pam_chestnut.png",1,20,20,21,510.107134,510.107134,510.4401734,510.4387509,"d",3.10449925,"NF01","Female",22,"2023-02-08_11h34.35.902","id","2022.2.3","None",2
"97",2,2,"sound/pam_LH_filler.wav","image1/pam_LH_filler.png","image2/tam_filler.png",1,21,21,39,513.7349112,513.7349112,514.056813,514.0566998,"d",3.901415458,"NF01","Female",22,"2023-02-08_11h34.35.902","id","2022.2.3","None",2
"98",2,2,"sound/pam_peak_step2.wav","image1/pam_night.png","image2/pam_chestnut.png",1,22,22,6,518.1400293,518.1400293,518.488475,518.4887197,"k",3.168274667,"NF01","Female",22,"2023-02-08_11h34.35.902","id","2022.2.3","None",2
"99",2,2,"sound/pan_filler.wav","image1/pan_filler.png","image2/pang_filler.png",2,23,23,60,521.8142362,521.8142362,522.1721443,522.172183,"d",2.96770275,"NF01","Female",22,"2023-02-08_11h34.35.902","id","2022.2.3","None",2
"100",2,2,"sound/tan_filler.wav","image1/tan_filler.png","image2/nan_filler.png",1,24,24,61,525.3209011,525.3209011,525.6564239,525.6551528,"d",3.732655459,"NF01","Female",22,"2023-02-08_11h34.35.902","id","2022.2.3","None",2
"101",2,2,"sound/kan_LH_filler.wav","image1/kan_LH_filler.png","image2/nan_filler.png",1,25,25,37,529.565676,529.565676,529.8897847,529.8899888,"d",3.071640334,"NF01","Female",22,"2023-02-08_11h34.35.902","id","2022.2.3","None",2
"102",2,2,"sound/pal_shape_step1.wav","image1/pal_foot.png","image2/pal_shade.png",1,26,26,25,533.126766,533.126766,533.4718949,533.4720795,"d",2.986642667,"NF01","Female",22,"2023-02-08_11h34.35.902","id","2022.2.3","None",2
"103",2,2,"sound/tam_filler.wav","image1/tam_filler.png","image2/nam_filler.png",1,27,27,62,536.6416442,536.6416442,536.9735489,536.9721455,"d",2.957084792,"NF01","Female",22,"2023-02-08_11h34.35.902","id","2022.2.3","None",2
"104",2,2,"sound/tam_filler.wav","image1/tam_filler.png","image2/nam_filler.png",1,28,28,67,540.0972194,540.0972194,540.4553685,540.4553331,"d",4.873600292,"NF01","Female",22,"2023-02-08_11h34.35.902","id","2022.2.3","None",2
"105",2,2,"sound/khal_filler.wav","image1/khal_filler.png","image2/tal_filler.png",1,29,29,68,545.5201855,545.5201855,545.8403924,545.8402123,"d",2.922672833,"NF01","Female",22,"2023-02-08_11h34.35.902","id","2022.2.3","None",2
"106",2,2,"sound/khal_filler.wav","image1/khal_filler.png","image2/tal_filler.png",1,30,30,73,548.9510328,548.9510328,549.2901797,549.28883,"d",2.70998375,"NF01","Female",22,"2023-02-08_11h34.35.902","id","2022.2.3","None",2
"107",2,2,"sound/pal_peak_step5.wav","image1/pal_foot.png","image2/pal_shade.png",1,31,31,14,552.1661862,552.1661862,552.5220172,552.5221286,"k",3.012697375,"NF01","Female",22,"2023-02-08_11h34.35.902","id","2022.2.3","None",2
"108",2,2,"sound/kan_shape_step2.wav","image1/kan_taste.png","image2/kan_liver.png",1,32,32,16,555.725463,555.725463,556.0406925,556.0407523,"d",3.031650042,"NF01","Female",22,"2023-02-08_11h34.35.902","id","2022.2.3","None",2
"109",2,2,"sound/pan_filler.wav","image1/pan_filler.png","image2/pal_LH_filler.png",2,33,33,51,559.2541477,559.2541477,559.6052292,559.6054515,"d",2.999977,"NF01","Female",22,"2023-02-08_11h34.35.902","id","2022.2.3","None",2
"110",2,2,"sound/kan_peak_step3.wav","image1/kan_taste.png","image2/kan_liver.png",1,34,34,2,562.7934652,562.7934652,563.1069682,563.1069547,"k",2.979467166,"NF01","Female",22,"2023-02-08_11h34.35.902","id","2022.2.3","None",2
"111",2,2,"sound/kang_filler.wav","image1/kang_filler.png","image2/kan_H_filler.png",2,35,35,48,566.2847444,566.2847444,566.6069551,566.6072759,"d",4.111162542,"NF01","Female",22,"2023-02-08_11h34.35.902","id","2022.2.3","None",2
"112",2,2,"sound/khal_filler.wav","image1/khal_filler.png","image2/pal_LH_filler.png",2,36,36,57,570.8749922,570.8749922,571.2390245,571.2406488,"d",2.974779125,"NF01","Female",22,"2023-02-08_11h34.35.902","id","2022.2.3","None",2
"113",2,2,"sound/kan_peak_step4.wav","image1/kan_taste.png","image2/kan_liver.png",1,37,37,3,574.4108396,574.4108396,574.7236663,574.7236825,"k",3.026605917,"NF01","Female",22,"2023-02-08_11h34.35.902","id","2022.2.3","None",2
"114",2,2,"sound/pal_peak_step3.wav","image1/pal_foot.png","image2/pal_shade.png",1,38,38,12,577.9137271,577.9137271,578.257004,578.2554663,"k",3.061741167,"NF01","Female",22,"2023-02-08_11h34.35.902","id","2022.2.3","None",2
"115",2,2,"sound/pal_peak_step2.wav","image1/pal_foot.png","image2/pal_shade.png",1,39,39,11,581.470801,581.470801,581.8388309,581.8406085,"k",3.02650625,"NF01","Female",22,"2023-02-08_11h34.35.902","id","2022.2.3","None",2
"116",2,2,"sound/kan_peak_step2.wav","image1/kan_taste.png","image2/kan_liver.png",1,40,40,1,585.0568332,585.0568332,585.3739106,585.3737687,"k",3.03019775,"NF01","Female",22,"2023-02-08_11h34.35.902","id","2022.2.3","None",2
"117",2,2,"sound/kan_peak_step1.wav","image1/kan_taste.png","image2/kan_liver.png",1,41,41,0,588.5871337,588.5871337,588.9071749,588.9070268,"k",3.009884959,"NF01","Female",22,"2023-02-08_11h34.35.902","id","2022.2.3","None",2
"118",2,2,"sound/pal_LH_filler.wav","image1/pal_LH_filler.png","image2/pang_filler.png",1,42,42,35,592.074681,592.074681,592.4392701,592.4405321,"d",3.830529583,"NF01","Female",22,"2023-02-08_11h34.35.902","id","2022.2.3","None",2
"119",2,2,"sound/pal_peak_step1.wav","image1/pal_foot.png","image2/pal_shade.png",1,43,43,10,596.4320095,596.4320095,596.7742683,596.7724416,"k",3.047567583,"NF01","Female",22,"2023-02-08_11h34.35.902","id","2022.2.3","None",2
"120",2,2,"sound/kan_shape_step5.wav","image1/kan_taste.png","image2/kan_liver.png",1,44,44,19,600.0057868,600.0057868,600.3240474,600.3238809,"d",3.728135291,"NF01","Female",22,"2023-02-08_11h34.35.902","id","2022.2.3","None",2
"121",2,2,"sound/pam_peak_step4.wav","image1/pam_night.png","image2/pam_chestnut.png",1,45,45,8,604.2265132,604.2265132,604.5571975,604.5557355,"k",3.116084042,"NF01","Female",22,"2023-02-08_11h34.35.902","id","2022.2.3","None",2
"122",2,2,"sound/tal_filler.wav","image1/tal_filler.png","image2/pal_LH_filler.png",1,46,46,74,607.8645431,607.8645431,608.1899902,608.1900424,"d",3.237737,"NF01","Female",22,"2023-02-08_11h34.35.902","id","2022.2.3","None",2
"123",2,2,"sound/pan_filler.wav","image1/pan_filler.png","image2/pang_filler.png",1,47,47,70,611.5970073,611.5970073,611.9555296,611.9574348,"d",3.001259792,"NF01","Female",22,"2023-02-08_11h34.35.902","id","2022.2.3","None",2
"124",2,2,"sound/pang_filler.wav","image1/pang_filler.png","image2/pam_H_filler.png",2,48,48,50,615.1250004,615.1250004,615.4889936,615.4907022,"d",3.002924083,"NF01","Female",22,"2023-02-08_11h34.35.902","id","2022.2.3","None",2
"125",2,2,"sound/kam_filler.wav","image1/kam_filler.png","image2/kan_LH_filler.png",2,49,49,47,618.6642097,618.6642097,619.0222484,619.0227295,"d",2.999356167,"NF01","Female",22,"2023-02-08_11h34.35.902","id","2022.2.3","None",2
"126",2,2,"sound/nam_filler.wav","image1/nam_filler.png","image2/tam_filler.png",1,50,50,45,622.1858923,622.1858923,622.5238092,622.5223043,"d",2.945198292,"NF01","Female",22,"2023-02-08_11h34.35.902","id","2022.2.3","None",2
"127",2,2,"sound/kam_filler.wav","image1/kam_filler.png","image2/kang_filler.png",1,51,51,69,625.6346748,625.6346748,625.9736187,625.9724802,"d",2.976936708,"NF01","Female",22,"2023-02-08_11h34.35.902","id","2022.2.3","None",2
"128",2,2,"sound/pal_shape_step3.wav","image1/pal_foot.png","image2/pal_shade.png",1,52,52,27,629.11556,629.11556,629.4576635,629.4557133,"d",3.024611917,"NF01","Female",22,"2023-02-08_11h34.35.902","id","2022.2.3","None",2
"129",2,2,"sound/pam_shape_step3.wav","image1/pam_night.png","image2/pam_chestnut.png",1,53,53,22,632.6591654,632.6591654,633.0058131,633.0058062,"d",2.985325875,"NF01","Female",22,"2023-02-08_11h34.35.902","id","2022.2.3","None",2
"130",2,2,"sound/pam_peak_step1.wav","image1/pam_night.png","image2/pam_chestnut.png",1,54,54,5,636.1664863,636.1664863,636.5070471,636.5058314,"k",3.107280834,"NF01","Female",22,"2023-02-08_11h34.35.902","id","2022.2.3","None",2
"131",2,2,"sound/pal_shape_step5.wav","image1/pal_foot.png","image2/pal_shade.png",1,55,55,29,639.7779226,639.7779226,640.1391662,640.1406781,"d",3.002286083,"NF01","Female",22,"2023-02-08_11h34.35.902","id","2022.2.3","None",2
"132",2,2,"sound/pal_H_filler.wav","image1/pal_H_filler.png","image2/khal_filler.png",1,56,56,40,643.3067712,643.3067712,643.6724466,643.6744473,"d",3.559450958,"NF01","Female",22,"2023-02-08_11h34.35.902","id","2022.2.3","None",2
"133",2,2,"sound/kan_LH_filler.wav","image1/kan_LH_filler.png","image2/kang_filler.png",1,57,57,31,647.4131144,647.4131144,647.7406033,647.7389973,"d",3.045765375,"NF01","Female",22,"2023-02-08_11h34.35.902","id","2022.2.3","None",2
"134",2,2,"sound/kan_shape_step4.wav","image1/kan_taste.png","image2/kan_liver.png",1,58,58,18,650.9744509,650.9744509,651.2908462,651.2908777,"d",3.018762042,"NF01","Female",22,"2023-02-08_11h34.35.902","id","2022.2.3","None",2
"135",2,2,"sound/kan_H_filler.wav","image1/kan_H_filler.png","image2/tan_filler.png",1,59,59,36,654.5174073,654.5174073,654.8224567,654.8242963,"d",3.6032065,"NF01","Female",22,"2023-02-08_11h34.35.902","id","2022.2.3","None",2
"136",2,2,"sound/tam_filler.wav","image1/tam_filler.png","image2/pam_H_filler.png",2,60,60,56,658.6164685,658.6164685,658.9572118,658.9558737,"d",2.984521042,"NF01","Female",22,"2023-02-08_11h34.35.902","id","2022.2.3","None",2
"137",2,2,"sound/pan_filler.wav","image1/pan_filler.png","image2/pang_filler.png",1,61,61,65,662.0926977,662.0926977,662.4560359,662.4576743,"d",2.9745735,"NF01","Female",22,"2023-02-08_11h34.35.902","id","2022.2.3","None",2
"138",2,2,"sound/pal_LH_filler.wav","image1/pal_LH_filler.png","image2/tal_filler.png",1,62,62,41,665.6289096,665.6289096,665.9406582,665.9408859,"d",3.070329375,"NF01","Female",22,"2023-02-08_11h34.35.902","id","2022.2.3","None",2
"139",2,2,"sound/pam_H_filler.wav","image1/pam_H_filler.png","image2/nam_filler.png",1,63,63,38,669.1730936,669.1730936,669.5224914,669.5225417,"d",2.98561675,"NF01","Female",22,"2023-02-08_11h34.35.902","id","2022.2.3","None",2
"140",2,2,"sound/kam_filler.wav","image1/kam_filler.png","image2/kang_filler.png",1,64,64,64,672.6910287,672.6910287,673.0238716,673.0225981,"d",3.013470208,"NF01","Female",22,"2023-02-08_11h34.35.902","id","2022.2.3","None",2
"141",2,2,"sound/kan_shape_step1.wav","image1/kan_taste.png","image2/kan_liver.png",1,65,65,15,676.2275296,676.2275296,676.5406343,676.5407625,"d",3.457221083,"NF01","Female",22,"2023-02-08_11h34.35.902","id","2022.2.3","None",2
"142",2,2,"sound/kan_shape_step3.wav","image1/kan_taste.png","image2/kan_liver.png",1,66,66,17,680.1885677,680.1885677,680.5240971,680.522588,"d",2.988247375,"NF01","Female",22,"2023-02-08_11h34.35.902","id","2022.2.3","None",2
"143",2,2,"sound/pam_shape_step4.wav","image1/pam_night.png","image2/pam_chestnut.png",1,67,67,23,683.6910109,683.6910109,684.0240313,684.022662,"d",2.976114334,"NF01","Female",22,"2023-02-08_11h34.35.902","id","2022.2.3","None",2
"144",2,2,"sound/kam_filler.wav","image1/kam_filler.png","image2/kang_filler.png",2,68,68,59,687.1756333,687.1756333,687.5076272,687.5059446,"d",2.989634792,"NF01","Female",22,"2023-02-08_11h34.35.902","id","2022.2.3","None",2
"145",2,2,"sound/pam_peak_step3.wav","image1/pam_night.png","image2/pam_chestnut.png",1,69,69,7,690.6725907,690.6725907,691.007514,691.0061018,"k",3.074326583,"NF01","Female",22,"2023-02-08_11h34.35.902","id","2022.2.3","None",2
"146",2,2,"sound/pal_peak_step4.wav","image1/pal_foot.png","image2/pal_shade.png",1,70,70,13,694.249348,694.249348,694.5909037,694.5893471,"k",3.031113458,"NF01","Female",22,"2023-02-08_11h34.35.902","id","2022.2.3","None",2
"147",2,2,"sound/tan_filler.wav","image1/tan_filler.png","image2/nan_filler.png",1,71,71,66,697.815889,697.815889,698.1409116,698.1409351,"d",2.922420417,"NF01","Female",22,"2023-02-08_11h34.35.902","id","2022.2.3","None",2
"148",2,2,"sound/tal_filler.wav","image1/tal_filler.png","image2/khal_filler.png",1,72,72,46,701.2542962,701.2542962,701.5742547,701.5743465,"d",2.922961709,"NF01","Female",22,"2023-02-08_11h34.35.902","id","2022.2.3","None",2
"149",2,2,"sound/pal_shape_step2.wav","image1/pal_foot.png","image2/pal_shade.png",1,73,73,26,704.6659864,704.6659864,705.0075192,705.0062469,"d",3.247753,"NF01","Female",22,"2023-02-08_11h34.35.902","id","2022.2.3","None",2
"150",2,2,"sound/kang_filler.wav","image1/kang_filler.png","image2/kam_filler.png",1,74,74,42,708.4285962,708.4285962,708.7575649,708.7562962,"d",2.957756166,"NF01","Female",22,"2023-02-08_11h34.35.902","id","2022.2.3","None",2
"151",3,3,"sound/kam_filler.wav","image1/kam_filler.png","image2/kang_filler.png",1,0,0,69,721.0332837,721.0332837,721.3579157,721.3577063,"d",4.167397583,"NF01","Female",22,"2023-02-08_11h34.35.902","id","2022.2.3","None",3
"152",3,3,"sound/tan_filler.wav","image1/tan_filler.png","image2/nan_filler.png",1,1,1,71,725.7291292,725.7291292,726.0576389,726.0559946,"d",2.903052291,"NF01","Female",22,"2023-02-08_11h34.35.902","id","2022.2.3","None",3
"153",3,3,"sound/pal_peak_step2.wav","image1/pal_foot.png","image2/pal_shade.png",1,2,2,11,729.1402903,729.1402903,729.4744726,729.4729972,"k",3.074959333,"NF01","Female",22,"2023-02-08_11h34.35.902","id","2022.2.3","None",3
"154",3,3,"sound/kan_peak_step5.wav","image1/kan_taste.png","image2/kan_liver.png",1,3,3,4,732.749624,732.749624,733.0745102,733.074619,"k",3.032169709,"NF01","Female",22,"2023-02-08_11h34.35.902","id","2022.2.3","None",3
"155",3,3,"sound/tam_filler.wav","image1/tam_filler.png","image2/nam_filler.png",1,4,4,67,736.29369,736.29369,736.6246898,736.6230025,"d",2.938682916,"NF01","Female",22,"2023-02-08_11h34.35.902","id","2022.2.3","None",3
"156",3,3,"sound/kan_H_filler.wav","image1/kan_H_filler.png","image2/tan_filler.png",1,5,5,36,739.7677204,739.7677204,740.0728009,740.0747075,"d",2.974989958,"NF01","Female",22,"2023-02-08_11h34.35.902","id","2022.2.3","None",3
"157",3,3,"sound/pam_shape_step3.wav","image1/pam_night.png","image2/pam_chestnut.png",1,6,6,22,743.2253915,743.2253915,743.5578575,743.5561982,"d",2.939281292,"NF01","Female",22,"2023-02-08_11h34.35.902","id","2022.2.3","None",3
"158",3,3,"sound/pam_H_filler.wav","image1/pam_H_filler.png","image2/pan_filler.png",1,7,7,32,746.672224,746.672224,747.0072978,747.0063596,"d",3.147123875,"NF01","Female",22,"2023-02-08_11h34.35.902","id","2022.2.3","None",3
"159",3,3,"sound/tan_filler.wav","image1/tan_filler.png","image2/kan_LH_filler.png",2,8,8,53,750.3376875,750.3376875,750.6576189,750.6579165,"d",3.014348834,"NF01","Female",22,"2023-02-08_11h34.35.902","id","2022.2.3","None",3
"160",3,3,"sound/kan_shape_step5.wav","image1/kan_taste.png","image2/kan_liver.png",1,9,9,19,753.8575564,753.8575564,754.1744037,754.1744647,"d",4.015462917,"NF01","Female",22,"2023-02-08_11h34.35.902","id","2022.2.3","None",3
"161",3,3,"sound/pan_filler.wav","image1/pan_filler.png","image2/pam_LH_filler.png",2,10,10,49,758.3783524,758.3783524,758.7080341,758.7062051,"d",5.388429,"NF01","Female",22,"2023-02-08_11h34.35.902","id","2022.2.3","None",3
"162",3,3,"sound/tam_filler.wav","image1/tam_filler.png","image2/pam_H_filler.png",2,11,11,56,764.2740477,764.2740477,764.6076821,764.6064695,"d",2.926028125,"NF01","Female",22,"2023-02-08_11h34.35.902","id","2022.2.3","None",3
"163",3,3,"sound/pam_shape_step4.wav","image1/pam_night.png","image2/pam_chestnut.png",1,12,12,23,767.708838,767.708838,768.0412252,768.0396184,"d",2.970803458,"NF01","Female",22,"2023-02-08_11h34.35.902","id","2022.2.3","None",3
"164",3,3,"sound/kan_peak_step2.wav","image1/kan_taste.png","image2/kan_liver.png",1,13,13,1,771.2124017,771.2124017,771.541051,771.5396372,"k",3.035687709,"NF01","Female",22,"2023-02-08_11h34.35.902","id","2022.2.3","None",3
"165",3,3,"sound/pal_shape_step4.wav","image1/pal_foot.png","image2/pal_shade.png",1,14,14,28,774.7443829,774.7443829,775.1064367,775.1078733,"d",2.972424,"NF01","Female",22,"2023-02-08_11h34.35.902","id","2022.2.3","None",3
"166",3,3,"sound/kang_filler.wav","image1/kang_filler.png","image2/kan_H_filler.png",2,15,15,48,778.2902069,778.2902069,778.5897274,778.5913908,"d",5.787284958,"NF01","Female",22,"2023-02-08_11h34.35.902","id","2022.2.3","None",3
"167",3,3,"sound/pal_peak_step3.wav","image1/pal_foot.png","image2/pal_shade.png",1,16,16,12,784.5468059,784.5468059,784.9063767,784.9078992,"k",2.99570825,"NF01","Female",22,"2023-02-08_11h34.35.902","id","2022.2.3","None",3
"168",3,3,"sound/kan_shape_step2.wav","image1/kan_taste.png","image2/kan_liver.png",1,17,17,16,788.0913302,788.0913302,788.4079345,788.4081097,"d",4.991741,"NF01","Female",22,"2023-02-08_11h34.35.902","id","2022.2.3","None",3
"169",3,3,"sound/pan_filler.wav","image1/pan_filler.png","image2/pang_filler.png",2,18,18,60,793.5629761,793.5629761,793.9230381,793.9245487,"d",3.388124042,"NF01","Female",22,"2023-02-08_11h34.35.902","id","2022.2.3","None",3
"170",3,3,"sound/pal_shape_step5.wav","image1/pal_foot.png","image2/pal_shade.png",1,19,19,29,797.4812351,797.4812351,797.8397565,797.8412481,"d",3.0223765,"NF01","Female",22,"2023-02-08_11h34.35.902","id","2022.2.3","None",3
"171",3,3,"sound/pal_LH_filler.wav","image1/pal_LH_filler.png","image2/pang_filler.png",1,20,20,35,801.025634,801.025634,801.3730436,801.3731374,"d",3.181386125,"NF01","Female",22,"2023-02-08_11h34.35.902","id","2022.2.3","None",3
"172",3,3,"sound/pal_peak_step1.wav","image1/pal_foot.png","image2/pal_shade.png",1,21,21,10,804.7133497,804.7133497,805.0565023,805.0564612,"k",3.028043625,"NF01","Female",22,"2023-02-08_11h34.35.902","id","2022.2.3","None",3
"173",3,3,"sound/khal_filler.wav","image1/khal_filler.png","image2/pal_LH_filler.png",2,22,22,57,808.2396071,808.2396071,808.6065889,808.6083744,"d",2.952024834,"NF01","Female",22,"2023-02-08_11h34.35.902","id","2022.2.3","None",3
"174",3,3,"sound/pal_shape_step3.wav","image1/pal_foot.png","image2/pal_shade.png",1,23,23,27,811.7254163,811.7254163,812.0902454,812.0911748,"d",3.056020042,"NF01","Female",22,"2023-02-08_11h34.35.902","id","2022.2.3","None",3
"175",3,3,"sound/pal_shape_step1.wav","image1/pal_foot.png","image2/pal_shade.png",1,24,24,25,815.3041177,815.3041177,815.6733065,815.674753,"d",6.463998583,"NF01","Female",22,"2023-02-08_11h34.35.902","id","2022.2.3","None",3
"176",3,3,"sound/pan_filler.wav","image1/pan_filler.png","image2/pang_filler.png",1,25,25,70,822.2967582,822.2967582,822.6565669,822.6584035,"d",2.987310042,"NF01","Female",22,"2023-02-08_11h34.35.902","id","2022.2.3","None",3
"177",3,3,"sound/kan_shape_step1.wav","image1/kan_taste.png","image2/kan_liver.png",1,26,26,15,825.8456773,825.8456773,826.1746195,826.1731107,"d",2.959441208,"NF01","Female",22,"2023-02-08_11h34.35.902","id","2022.2.3","None",3
"178",3,3,"sound/pang_filler.wav","image1/pang_filler.png","image2/pal_H_filler.png",2,27,27,52,829.29044,829.29044,829.6565191,829.6580667,"d",2.951418667,"NF01","Female",22,"2023-02-08_11h34.35.902","id","2022.2.3","None",3
"179",3,3,"sound/pam_shape_step1.wav","image1/pam_night.png","image2/pam_chestnut.png",1,28,28,20,832.791728,832.791728,833.1246007,833.1232477,"d",3.849713084,"NF01","Female",22,"2023-02-08_11h34.35.902","id","2022.2.3","None",3
"180",3,3,"sound/kan_peak_step3.wav","image1/kan_taste.png","image2/kan_liver.png",1,29,29,2,837.163155,837.163155,837.4913642,837.4900074,"k",2.913953375,"NF01","Female",22,"2023-02-08_11h34.35.902","id","2022.2.3","None",3
"181",3,3,"sound/pam_peak_step5.wav","image1/pam_night.png","image2/pam_chestnut.png",1,30,30,9,840.5761995,840.5761995,840.9231619,840.923627,"k",2.929252834,"NF01","Female",22,"2023-02-08_11h34.35.902","id","2022.2.3","None",3
"182",3,3,"sound/tan_filler.wav","image1/tan_filler.png","image2/nan_filler.png",1,31,31,66,844.0453351,844.0453351,844.3586317,844.358397,"d",2.99331275,"NF01","Female",22,"2023-02-08_11h34.35.902","id","2022.2.3","None",3
"183",3,3,"sound/tam_filler.wav","image1/tam_filler.png","image2/nam_filler.png",1,32,32,62,847.5138795,847.5138795,847.8733256,847.8751484,"d",3.374557417,"NF01","Female",22,"2023-02-08_11h34.35.902","id","2022.2.3","None",3
"184",3,3,"sound/khal_filler.wav","image1/khal_filler.png","image2/tal_filler.png",1,33,33,68,851.4379185,851.4379185,851.7581748,851.758282,"d",2.945339542,"NF01","Female",22,"2023-02-08_11h34.35.902","id","2022.2.3","None",3
"185",3,3,"sound/pang_filler.wav","image1/pang_filler.png","image2/pan_filler.png",1,34,34,43,854.85471,854.85471,855.2067486,855.2070428,"d",3.252387167,"NF01","Female",22,"2023-02-08_11h34.35.902","id","2022.2.3","None",3
"186",3,3,"sound/khal_filler.wav","image1/khal_filler.png","image2/tal_filler.png",1,35,35,63,858.652394,858.652394,858.9749885,858.9747618,"d",3.74559575,"NF01","Female",22,"2023-02-08_11h34.35.902","id","2022.2.3","None",3
"187",3,3,"sound/nan_filler.wav","image1/nan_filler.png","image2/kan_H_filler.png",2,36,36,54,862.9179073,862.9179073,863.2412557,863.2415696,"d",2.991724625,"NF01","Female",22,"2023-02-08_11h34.35.902","id","2022.2.3","None",3
"188",3,3,"sound/kam_filler.wav","image1/kam_filler.png","image2/kan_LH_filler.png",2,37,37,47,866.3961336,866.3961336,866.756962,866.758269,"d",2.988935666,"NF01","Female",22,"2023-02-08_11h34.35.902","id","2022.2.3","None",3
"189",3,3,"sound/pam_peak_step1.wav","image1/pam_night.png","image2/pam_chestnut.png",1,38,38,5,869.9259609,869.9259609,870.2734651,870.273405,"k",3.241717375,"NF01","Female",22,"2023-02-08_11h34.35.902","id","2022.2.3","None",3
"190",3,3,"sound/kan_shape_step3.wav","image1/kan_taste.png","image2/kan_liver.png",1,39,39,17,873.7132136,873.7132136,874.025035,874.0250138,"d",2.951090666,"NF01","Female",22,"2023-02-08_11h34.35.902","id","2022.2.3","None",3
"191",3,3,"sound/pam_shape_step2.wav","image1/pam_night.png","image2/pam_chestnut.png",1,40,40,21,877.1571076,877.1571076,877.4915247,877.490081,"d",2.9707795,"NF01","Female",22,"2023-02-08_11h34.35.902","id","2022.2.3","None",3
"192",3,3,"sound/pam_shape_step5.wav","image1/pam_night.png","image2/pam_chestnut.png",1,41,41,24,880.6326494,880.6326494,880.989971,880.9901381,"d",3.02062325,"NF01","Female",22,"2023-02-08_11h34.35.902","id","2022.2.3","None",3
"193",3,3,"sound/tan_filler.wav","image1/tan_filler.png","image2/nan_filler.png",1,42,42,61,884.2115025,884.2115025,884.541708,884.5403001,"d",3.045385667,"NF01","Female",22,"2023-02-08_11h34.35.902","id","2022.2.3","None",3
"194",3,3,"sound/kan_LH_filler.wav","image1/kan_LH_filler.png","image2/nan_filler.png",1,43,43,37,887.7674195,887.7674195,888.091781,888.0916754,"d",3.074971541,"NF01","Female",22,"2023-02-08_11h34.35.902","id","2022.2.3","None",3
"195",3,3,"sound/tal_filler.wav","image1/tal_filler.png","image2/pal_LH_filler.png",1,44,44,74,891.3676592,891.3676592,891.6736464,891.6751548,"d",2.991225792,"NF01","Female",22,"2023-02-08_11h34.35.902","id","2022.2.3","None",3
"196",3,3,"sound/nam_filler.wav","image1/nam_filler.png","image2/pam_LH_filler.png",2,45,45,55,894.8323921,894.8323921,895.1899433,895.190502,"d",2.92593175,"NF01","Female",22,"2023-02-08_11h34.35.902","id","2022.2.3","None",3
"197",3,3,"sound/kan_peak_step1.wav","image1/kan_taste.png","image2/kan_liver.png",1,46,46,0,898.3132218,898.3132218,898.6248691,898.6251094,"k",3.261224959,"NF01","Female",22,"2023-02-08_11h34.35.902","id","2022.2.3","None",3
"198",3,3,"sound/kan_peak_step4.wav","image1/kan_taste.png","image2/kan_liver.png",1,47,47,3,902.0708058,902.0708058,902.4085296,902.407028,"k",2.95818775,"NF01","Female",22,"2023-02-08_11h34.35.902","id","2022.2.3","None",3
"199",3,3,"sound/pam_LH_filler.wav","image1/pam_LH_filler.png","image2/pang_filler.png",1,48,48,33,905.5328596,905.5328596,905.8752306,905.873597,"d",3.404416417,"NF01","Female",22,"2023-02-08_11h34.35.902","id","2022.2.3","None",3
"200",3,3,"sound/pan_filler.wav","image1/pan_filler.png","image2/pal_LH_filler.png",2,49,49,51,909.4516656,909.4516656,909.7916679,909.7903076,"d",3.899598792,"NF01","Female",22,"2023-02-08_11h34.35.902","id","2022.2.3","None",3
"201",3,3,"sound/kan_LH_filler.wav","image1/kan_LH_filler.png","image2/kang_filler.png",1,50,50,31,913.8703782,913.8703782,914.2083424,914.2070327,"d",3.034745583,"NF01","Female",22,"2023-02-08_11h34.35.902","id","2022.2.3","None",3
"202",3,3,"sound/kang_filler.wav","image1/kang_filler.png","image2/kam_filler.png",1,51,51,42,917.4096344,917.4096344,917.7418791,917.7404215,"d",2.970314125,"NF01","Female",22,"2023-02-08_11h34.35.902","id","2022.2.3","None",3
"203",3,3,"sound/pal_shape_step2.wav","image1/pal_foot.png","image2/pal_shade.png",1,52,52,26,920.8820223,920.8820223,921.2402017,921.2402795,"d",3.890667958,"NF01","Female",22,"2023-02-08_11h34.35.902","id","2022.2.3","None",3
"204",3,3,"sound/tal_filler.wav","image1/tal_filler.png","image2/pal_H_filler.png",2,53,53,58,925.3337045,925.3337045,925.6584807,925.6584945,"d",3.607363375,"NF01","Female",22,"2023-02-08_11h34.35.902","id","2022.2.3","None",3
"205",3,3,"sound/tam_filler.wav","image1/tam_filler.png","image2/nam_filler.png",1,54,54,72,929.4344602,929.4344602,929.7750636,929.77346,"d",2.939360917,"NF01","Female",22,"2023-02-08_11h34.35.902","id","2022.2.3","None",3
"206",3,3,"sound/pal_peak_step4.wav","image1/pal_foot.png","image2/pal_shade.png",1,55,55,13,932.8818334,932.8818334,933.2249891,933.2235205,"k",3.393239791,"NF01","Female",22,"2023-02-08_11h34.35.902","id","2022.2.3","None",3
"207",3,3,"sound/pal_peak_step5.wav","image1/pal_foot.png","image2/pal_shade.png",1,56,56,14,936.7723865,936.7723865,937.1406212,937.1418467,"k",3.010684333,"NF01","Female",22,"2023-02-08_11h34.35.902","id","2022.2.3","None",3
"208",3,3,"sound/pam_peak_step4.wav","image1/pam_night.png","image2/pam_chestnut.png",1,57,57,8,940.3259985,940.3259985,940.6735096,940.6739655,"k",3.002439333,"NF01","Female",22,"2023-02-08_11h34.35.902","id","2022.2.3","None",3
"209",3,3,"sound/pal_LH_filler.wav","image1/pal_LH_filler.png","image2/tal_filler.png",1,58,58,41,943.8801937,943.8801937,944.2085809,944.2070559,"d",5.89047225,"NF01","Female",22,"2023-02-08_11h34.35.902","id","2022.2.3","None",3
"210",3,3,"sound/pal_H_filler.wav","image1/pal_H_filler.png","image2/khal_filler.png",1,59,59,40,950.2580577,950.2580577,950.6239305,950.6251897,"d",3.019346208,"NF01","Female",22,"2023-02-08_11h34.35.902","id","2022.2.3","None",3
"211",3,3,"sound/khal_filler.wav","image1/khal_filler.png","image2/tal_filler.png",1,60,60,73,953.8443356,953.8443356,954.1586402,954.1586582,"d",3.615656083,"NF01","Female",22,"2023-02-08_11h34.35.902","id","2022.2.3","None",3
"212",3,3,"sound/pam_H_filler.wav","image1/pam_H_filler.png","image2/nam_filler.png",1,61,61,38,957.9439742,957.9439742,958.3070339,958.3086144,"d",3.284535667,"NF01","Female",22,"2023-02-08_11h34.35.902","id","2022.2.3","None",3
"213",3,3,"sound/kan_H_filler.wav","image1/kan_H_filler.png","image2/kam_filler.png",1,62,62,30,961.782771,961.782771,962.1085098,962.108571,"d",5.483657042,"NF01","Female",22,"2023-02-08_11h34.35.902","id","2022.2.3","None",3
"214",3,3,"sound/pal_H_filler.wav","image1/pal_H_filler.png","image2/pan_filler.png",1,63,63,34,967.7615522,967.7615522,968.1236946,968.1255954,"d",4.658414458,"NF01","Female",22,"2023-02-08_11h34.35.902","id","2022.2.3","None",3
"215",3,3,"sound/kam_filler.wav","image1/kam_filler.png","image2/kang_filler.png",1,64,64,64,972.95946,972.95946,973.3070701,973.3074767,"d",5.034637333,"NF01","Female",22,"2023-02-08_11h34.35.902","id","2022.2.3","None",3
"216",3,3,"sound/pam_peak_step3.wav","image1/pam_night.png","image2/pam_chestnut.png",1,65,65,7,978.5107803,978.5107803,978.8420469,978.8403045,"k",3.096839625,"NF01","Female",22,"2023-02-08_11h34.35.902","id","2022.2.3","None",3
"217",3,3,"sound/tal_filler.wav","image1/tal_filler.png","image2/khal_filler.png",1,66,66,46,982.1347297,982.1347297,982.4589618,982.4586167,"d",3.846507,"NF01","Female",22,"2023-02-08_11h34.35.902","id","2022.2.3","None",3
"218",3,3,"sound/pang_filler.wav","image1/pang_filler.png","image2/pam_H_filler.png",2,67,67,50,986.4599311,986.4599311,986.8240213,986.8255001,"d",4.847482583,"NF01","Female",22,"2023-02-08_11h34.35.902","id","2022.2.3","None",3
"219",3,3,"sound/nan_filler.wav","image1/nan_filler.png","image2/tan_filler.png",1,68,68,44,991.8599242,991.8599242,992.1754771,992.175276,"d",3.0057125,"NF01","Female",22,"2023-02-08_11h34.35.902","id","2022.2.3","None",3
"220",3,3,"sound/pan_filler.wav","image1/pan_filler.png","image2/pang_filler.png",1,69,69,65,995.3392401,995.3392401,995.7072275,995.7088677,"d",3.308055875,"NF01","Female",22,"2023-02-08_11h34.35.902","id","2022.2.3","None",3
"221",3,3,"sound/pam_peak_step2.wav","image1/pam_night.png","image2/pam_chestnut.png",1,70,70,6,999.1928595,999.1928595,999.5254878,999.5240992,"k",3.012736708,"NF01","Female",22,"2023-02-08_11h34.35.902","id","2022.2.3","None",3
"222",3,3,"sound/nam_filler.wav","image1/nam_filler.png","image2/tam_filler.png",1,71,71,45,1002.708671,1002.708671,1003.042141,1003.040749,"d",3.002828333,"NF01","Female",22,"2023-02-08_11h34.35.902","id","2022.2.3","None",3
"223",3,3,"sound/pam_LH_filler.wav","image1/pam_LH_filler.png","image2/tam_filler.png",1,72,72,39,1006.230877,1006.230877,1006.558824,1006.557165,"d",3.098682417,"NF01","Female",22,"2023-02-08_11h34.35.902","id","2022.2.3","None",3
"224",3,3,"sound/kan_shape_step4.wav","image1/kan_taste.png","image2/kan_liver.png",1,73,73,18,1009.848578,1009.848578,1010.158977,1010.158985,"d",3.620492291,"NF01","Female",22,"2023-02-08_11h34.35.902","id","2022.2.3","None",3
"225",3,3,"sound/kam_filler.wav","image1/kam_filler.png","image2/kang_filler.png",2,74,74,59,1013.962955,1013.962955,1014.292087,1014.290637,"d",2.981672167,"NF01","Female",22,"2023-02-08_11h34.35.902","id","2022.2.3","None",3
"226",4,4,"sound/pam_LH_filler.wav","image1/pam_LH_filler.png","image2/pang_filler.png",1,0,0,33,1047.439207,1047.439207,1047.790692,1047.790951,"d",2.9436305,"NF01","Female",22,"2023-02-08_11h34.35.902","id","2022.2.3","None",4
"227",4,4,"sound/khal_filler.wav","image1/khal_filler.png","image2/pal_LH_filler.png",2,1,1,57,1050.897563,1050.897563,1051.257759,1051.259089,"d",2.860517208,"NF01","Female",22,"2023-02-08_11h34.35.902","id","2022.2.3","None",4
"228",4,4,"sound/pal_shape_step2.wav","image1/pal_foot.png","image2/pal_shade.png",1,2,2,26,1054.281702,1054.281702,1054.640722,1054.642629,"d",3.487810708,"NF01","Female",22,"2023-02-08_11h34.35.902","id","2022.2.3","None",4
"229",4,4,"sound/nam_filler.wav","image1/nam_filler.png","image2/tam_filler.png",1,3,3,45,1058.309957,1058.309957,1058.642615,1058.640818,"d",2.890484583,"NF01","Female",22,"2023-02-08_11h34.35.902","id","2022.2.3","None",4
"230",4,4,"sound/pal_peak_step2.wav","image1/pal_foot.png","image2/pal_shade.png",1,4,4,11,1061.69982,1061.69982,1062.042579,1062.040927,"k",3.013342916,"NF01","Female",22,"2023-02-08_11h34.35.902","id","2022.2.3","None",4
"231",4,4,"sound/tal_filler.wav","image1/tal_filler.png","image2/pal_LH_filler.png",1,5,5,74,1065.247495,1065.247495,1065.558901,1065.559263,"d",2.9249245,"NF01","Female",22,"2023-02-08_11h34.35.902","id","2022.2.3","None",4
"232",4,4,"sound/pan_filler.wav","image1/pan_filler.png","image2/pang_filler.png",1,6,6,70,1068.647053,1068.647053,1069.007732,1069.009167,"d",2.961929875,"NF01","Female",22,"2023-02-08_11h34.35.902","id","2022.2.3","None",4
"233",4,4,"sound/pal_shape_step4.wav","image1/pal_foot.png","image2/pal_shade.png",1,7,7,28,1072.132354,1072.132354,1072.474297,1072.474314,"d",2.975822959,"NF01","Female",22,"2023-02-08_11h34.35.902","id","2022.2.3","None",4
"234",4,4,"sound/tan_filler.wav","image1/tan_filler.png","image2/nan_filler.png",1,8,8,66,1075.649271,1075.649271,1075.957472,1075.959352,"d",2.985528541,"NF01","Female",22,"2023-02-08_11h34.35.902","id","2022.2.3","None",4
"235",4,4,"sound/nan_filler.wav","image1/nan_filler.png","image2/tan_filler.png",1,9,9,44,1079.139414,1079.139414,1079.459155,1079.459171,"d",2.910612292,"NF01","Female",22,"2023-02-08_11h34.35.902","id","2022.2.3","None",4
"236",4,4,"sound/kan_peak_step3.wav","image1/kan_taste.png","image2/kan_liver.png",1,10,10,2,1082.565331,1082.565331,1082.892386,1082.890847,"k",6.83020075,"NF01","Female",22,"2023-02-08_11h34.35.902","id","2022.2.3","None",4
"237",4,4,"sound/pam_LH_filler.wav","image1/pam_LH_filler.png","image2/tam_filler.png",1,11,11,39,1089.903937,1089.903937,1090.225977,1090.225919,"d",3.027921875,"NF01","Female",22,"2023-02-08_11h34.35.902","id","2022.2.3","None",4
"238",4,4,"sound/pam_peak_step4.wav","image1/pam_night.png","image2/pam_chestnut.png",1,12,12,8,1093.428203,1093.428203,1093.759564,1093.757875,"k",3.07386975,"NF01","Female",22,"2023-02-08_11h34.35.902","id","2022.2.3","None",4
"239",4,4,"sound/kan_H_filler.wav","image1/kan_H_filler.png","image2/kam_filler.png",1,13,13,30,1097.022657,1097.022657,1097.342555,1097.342537,"d",3.007221958,"NF01","Female",22,"2023-02-08_11h34.35.902","id","2022.2.3","None",4
"240",4,4,"sound/khal_filler.wav","image1/khal_filler.png","image2/tal_filler.png",1,14,14,63,1100.544532,1100.544532,1100.859438,1100.859242,"d",2.982325042,"NF01","Female",22,"2023-02-08_11h34.35.902","id","2022.2.3","None",4
"241",4,4,"sound/pam_peak_step2.wav","image1/pam_night.png","image2/pam_chestnut.png",1,15,15,6,1104.01054,1104.01054,1104.342393,1104.340913,"k",2.9836235,"NF01","Female",22,"2023-02-08_11h34.35.902","id","2022.2.3","None",4
"242",4,4,"sound/pal_LH_filler.wav","image1/pal_LH_filler.png","image2/tal_filler.png",1,16,16,41,1107.513842,1107.513842,1107.842464,1107.841026,"d",5.616335958,"NF01","Female",22,"2023-02-08_11h34.35.902","id","2022.2.3","None",4
"243",4,4,"sound/kan_shape_step1.wav","image1/kan_taste.png","image2/kan_liver.png",1,17,17,15,1113.648132,1113.648132,1113.959293,1113.959512,"d",2.977794125,"NF01","Female",22,"2023-02-08_11h34.35.902","id","2022.2.3","None",4
"244",4,4,"sound/kan_shape_step5.wav","image1/kan_taste.png","image2/kan_liver.png",1,18,18,19,1117.12186,1117.12186,1117.442513,1117.442771,"d",2.956394958,"NF01","Female",22,"2023-02-08_11h34.35.902","id","2022.2.3","None",4
"245",4,4,"sound/pang_filler.wav","image1/pang_filler.png","image2/pan_filler.png",1,19,19,43,1120.567153,1120.567153,1120.909115,1120.907667,"d",3.014353584,"NF01","Female",22,"2023-02-08_11h34.35.902","id","2022.2.3","None",4
"246",4,4,"sound/pal_peak_step3.wav","image1/pal_foot.png","image2/pal_shade.png",1,20,20,12,1124.083616,1124.083616,1124.425767,1124.424328,"k",2.988559834,"NF01","Female",22,"2023-02-08_11h34.35.902","id","2022.2.3","None",4
"247",4,4,"sound/pam_H_filler.wav","image1/pam_H_filler.png","image2/pan_filler.png",1,21,21,32,1127.59301,1127.59301,1127.925747,1127.92438,"d",2.967381916,"NF01","Female",22,"2023-02-08_11h34.35.902","id","2022.2.3","None",4
"248",4,4,"sound/kan_LH_filler.wav","image1/kan_LH_filler.png","image2/nan_filler.png",1,22,22,37,1131.068086,1131.068086,1131.392665,1131.392693,"d",3.015912667,"NF01","Female",22,"2023-02-08_11h34.35.902","id","2022.2.3","None",4
"249",4,4,"sound/pang_filler.wav","image1/pang_filler.png","image2/pam_H_filler.png",2,23,23,50,1134.580146,1134.580146,1134.924479,1134.92469,"d",2.926950166,"NF01","Female",22,"2023-02-08_11h34.35.902","id","2022.2.3","None",4
"250",4,4,"sound/kam_filler.wav","image1/kam_filler.png","image2/kang_filler.png",1,24,24,69,1138.024744,1138.024744,1138.359405,1138.357777,"d",2.956828416,"NF01","Female",22,"2023-02-08_11h34.35.902","id","2022.2.3","None",4
"251",4,4,"sound/pam_shape_step5.wav","image1/pam_night.png","image2/pam_chestnut.png",1,25,25,24,1141.495006,1141.495006,1141.841223,1141.841142,"d",3.461267458,"NF01","Female",22,"2023-02-08_11h34.35.902","id","2022.2.3","None",4
"252",4,4,"sound/tan_filler.wav","image1/tan_filler.png","image2/nan_filler.png",1,26,26,71,1145.495022,1145.495022,1145.809548,1145.80946,"d",2.952817792,"NF01","Female",22,"2023-02-08_11h34.35.902","id","2022.2.3","None",4
"253",4,4,"sound/kan_peak_step5.wav","image1/kan_taste.png","image2/kan_liver.png",1,27,27,4,1148.967507,1148.967507,1149.292674,1149.292625,"k",2.982646167,"NF01","Female",22,"2023-02-08_11h34.35.902","id","2022.2.3","None",4
"254",4,4,"sound/kam_filler.wav","image1/kam_filler.png","image2/kang_filler.png",1,28,28,64,1152.444056,1152.444056,1152.776271,1152.774628,"d",2.977441333,"NF01","Female",22,"2023-02-08_11h34.35.902","id","2022.2.3","None",4
"255",4,4,"sound/pan_filler.wav","image1/pan_filler.png","image2/pam_LH_filler.png",2,29,29,49,1155.92658,1155.92658,1156.259839,1156.257829,"d",2.914177,"NF01","Female",22,"2023-02-08_11h34.35.902","id","2022.2.3","None",4
"256",4,4,"sound/kan_peak_step4.wav","image1/kan_taste.png","image2/kan_liver.png",1,30,30,3,1159.364108,1159.364108,1159.692535,1159.691156,"k",2.993765417,"NF01","Female",22,"2023-02-08_11h34.35.902","id","2022.2.3","None",4
"257",4,4,"sound/pal_peak_step1.wav","image1/pal_foot.png","image2/pal_shade.png",1,31,31,10,1162.845923,1162.845923,1163.207968,1163.209856,"k",3.017018875,"NF01","Female",22,"2023-02-08_11h34.35.902","id","2022.2.3","None",4
"258",4,4,"sound/tam_filler.wav","image1/tam_filler.png","image2/pam_H_filler.png",2,32,32,56,1166.412623,1166.412623,1166.742689,1166.741234,"d",2.950399708,"NF01","Female",22,"2023-02-08_11h34.35.902","id","2022.2.3","None",4
"259",4,4,"sound/kan_LH_filler.wav","image1/kan_LH_filler.png","image2/kang_filler.png",1,33,33,31,1169.889326,1169.889326,1170.226072,1170.224625,"d",3.049981958,"NF01","Female",22,"2023-02-08_11h34.35.902","id","2022.2.3","None",4
"260",4,4,"sound/kang_filler.wav","image1/kang_filler.png","image2/kan_H_filler.png",2,34,34,48,1173.474397,1173.474397,1173.796852,1173.793047,"d",4.244587292,"NF01","Female",22,"2023-02-08_11h34.35.902","id","2022.2.3","None",4
"261",4,4,"sound/pam_peak_step5.wav","image1/pam_night.png","image2/pam_chestnut.png",1,35,35,9,1178.210455,1178.210455,1178.557892,1178.558039,"d",6.570211458,"NF01","Female",22,"2023-02-08_11h34.35.902","id","2022.2.3","None",4
"262",4,4,"sound/tal_filler.wav","image1/tal_filler.png","image2/pal_H_filler.png",2,36,36,58,1185.335216,1185.335216,1185.641527,1185.64304,"d",4.426175875,"NF01","Female",22,"2023-02-08_11h34.35.902","id","2022.2.3","None",4
"263",4,4,"sound/tan_filler.wav","image1/tan_filler.png","image2/nan_filler.png",1,37,37,61,1190.261523,1190.261523,1190.57615,1190.576387,"d",5.064943667,"NF01","Female",22,"2023-02-08_11h34.35.902","id","2022.2.3","None",4
"264",4,4,"sound/pal_shape_step3.wav","image1/pal_foot.png","image2/pal_shade.png",1,38,38,27,1195.800818,1195.800818,1196.142833,1196.141441,"d",5.30481125,"NF01","Female",22,"2023-02-08_11h34.35.902","id","2022.2.3","None",4
"265",4,4,"sound/pam_peak_step1.wav","image1/pam_night.png","image2/pam_chestnut.png",1,39,39,5,1201.627565,1201.627565,1201.974758,1201.97501,"k",5.642776292,"NF01","Female",22,"2023-02-08_11h34.35.902","id","2022.2.3","None",4
"266",4,4,"sound/khal_filler.wav","image1/khal_filler.png","image2/tal_filler.png",1,40,40,68,1207.817573,1207.817573,1208.12497,1208.126369,"d",2.985251666,"NF01","Female",22,"2023-02-08_11h34.35.902","id","2022.2.3","None",4
"267",4,4,"sound/kan_peak_step2.wav","image1/kan_taste.png","image2/kan_liver.png",1,41,41,1,1211.314225,1211.314225,1211.642556,1211.641606,"k",3.129932916,"NF01","Female",22,"2023-02-08_11h34.35.902","id","2022.2.3","None",4
"268",4,4,"sound/pal_H_filler.wav","image1/pal_H_filler.png","image2/pan_filler.png",1,42,42,34,1214.934485,1214.934485,1215.276649,1215.274725,"d",3.250795834,"NF01","Female",22,"2023-02-08_11h34.35.902","id","2022.2.3","None",4
"269",4,4,"sound/tam_filler.wav","image1/tam_filler.png","image2/nam_filler.png",1,43,43,72,1218.688203,1218.688203,1219.026256,1219.024855,"d",2.963632416,"NF01","Female",22,"2023-02-08_11h34.35.902","id","2022.2.3","None",4
"270",4,4,"sound/pam_shape_step2.wav","image1/pam_night.png","image2/pam_chestnut.png",1,44,44,21,1222.161094,1222.161094,1222.508061,1222.508495,"d",3.013726042,"NF01","Female",22,"2023-02-08_11h34.35.902","id","2022.2.3","None",4
"271",4,4,"sound/pal_H_filler.wav","image1/pal_H_filler.png","image2/khal_filler.png",1,45,45,40,1225.679523,1225.679523,1226.041543,1226.043064,"d",2.989080375,"NF01","Female",22,"2023-02-08_11h34.35.902","id","2022.2.3","None",4
"272",4,4,"sound/nan_filler.wav","image1/nan_filler.png","image2/kan_H_filler.png",2,46,46,54,1229.242462,1229.242462,1229.559628,1229.559877,"d",2.977285083,"NF01","Female",22,"2023-02-08_11h34.35.902","id","2022.2.3","None",4
"273",4,4,"sound/pam_H_filler.wav","image1/pam_H_filler.png","image2/nam_filler.png",1,47,47,38,1232.702314,1232.702314,1233.04323,1233.041596,"d",3.150282208,"NF01","Female",22,"2023-02-08_11h34.35.902","id","2022.2.3","None",4
"274",4,4,"sound/kan_shape_step3.wav","image1/kan_taste.png","image2/kan_liver.png",1,48,48,17,1236.399852,1236.399852,1236.72652,1236.726331,"d",2.992589334,"NF01","Female",22,"2023-02-08_11h34.35.902","id","2022.2.3","None",4
"275",4,4,"sound/pam_peak_step3.wav","image1/pam_night.png","image2/pam_chestnut.png",1,49,49,7,1239.893047,1239.893047,1240.241505,1240.241958,"k",3.034751042,"NF01","Female",22,"2023-02-08_11h34.35.902","id","2022.2.3","None",4
"276",4,4,"sound/pang_filler.wav","image1/pang_filler.png","image2/pal_H_filler.png",2,50,50,52,1243.445285,1243.445285,1243.808151,1243.809767,"d",2.990992959,"NF01","Female",22,"2023-02-08_11h34.35.902","id","2022.2.3","None",4
"277",4,4,"sound/kam_filler.wav","image1/kam_filler.png","image2/kang_filler.png",2,51,51,59,1246.977259,1246.977259,1247.325014,1247.325005,"d",3.164603667,"NF01","Female",22,"2023-02-08_11h34.35.902","id","2022.2.3","None",4
"278",4,4,"sound/pan_filler.wav","image1/pan_filler.png","image2/pang_filler.png",2,52,52,60,1250.64054,1250.64054,1251.008208,1251.009712,"d",2.959872958,"NF01","Female",22,"2023-02-08_11h34.35.902","id","2022.2.3","None",4
"279",4,4,"sound/pal_LH_filler.wav","image1/pal_LH_filler.png","image2/pang_filler.png",1,53,53,35,1254.121124,1254.121124,1254.491427,1254.493375,"d",3.160970958,"NF01","Female",22,"2023-02-08_11h34.35.902","id","2022.2.3","None",4
"280",4,4,"sound/tan_filler.wav","image1/tan_filler.png","image2/kan_LH_filler.png",2,54,54,53,1257.840583,1257.840583,1258.159674,1258.159839,"d",3.350321416,"NF01","Female",22,"2023-02-08_11h34.35.902","id","2022.2.3","None",4
"281",4,4,"sound/nam_filler.wav","image1/nam_filler.png","image2/pam_LH_filler.png",2,55,55,55,1261.685804,1261.685804,1262.026341,1262.024962,"d",2.989168334,"NF01","Female",22,"2023-02-08_11h34.35.902","id","2022.2.3","None",4
"282",4,4,"sound/pal_shape_step5.wav","image1/pal_foot.png","image2/pal_shade.png",1,56,56,29,1265.185454,1265.185454,1265.526406,1265.52493,"d",2.925152291,"NF01","Female",22,"2023-02-08_11h34.35.902","id","2022.2.3","None",4
"283",4,4,"sound/pan_filler.wav","image1/pan_filler.png","image2/pal_LH_filler.png",2,57,57,51,1268.617975,1268.617975,1268.95974,1268.958329,"d",3.016576417,"NF01","Female",22,"2023-02-08_11h34.35.902","id","2022.2.3","None",4
"284",4,4,"sound/pam_shape_step3.wav","image1/pam_night.png","image2/pam_chestnut.png",1,58,58,22,1272.143422,1272.143422,1272.476426,1272.474902,"d",3.056907917,"NF01","Female",22,"2023-02-08_11h34.35.902","id","2022.2.3","None",4
"285",4,4,"sound/tal_filler.wav","image1/tal_filler.png","image2/khal_filler.png",1,59,59,46,1275.732453,1275.732453,1276.043157,1276.043219,"d",2.627483916,"NF01","Female",22,"2023-02-08_11h34.35.902","id","2022.2.3","None",4
"286",4,4,"sound/kan_peak_step1.wav","image1/kan_taste.png","image2/kan_liver.png",1,60,60,0,1278.863435,1278.863435,1279.176496,1279.17673,"k",2.737956916,"NF01","Female",22,"2023-02-08_11h34.35.902","id","2022.2.3","None",4
"287",4,4,"sound/kang_filler.wav","image1/kang_filler.png","image2/kam_filler.png",1,61,61,42,1282.096076,1282.096076,1282.426921,1282.425046,"d",2.675580458,"NF01","Female",22,"2023-02-08_11h34.35.902","id","2022.2.3","None",4
"288",4,4,"sound/pam_shape_step4.wav","image1/pam_night.png","image2/pam_chestnut.png",1,62,62,23,1285.276911,1285.276911,1285.609549,1285.608331,"d",2.753123208,"NF01","Female",22,"2023-02-08_11h34.35.902","id","2022.2.3","None",4
"289",4,4,"sound/pam_shape_step1.wav","image1/pam_night.png","image2/pam_chestnut.png",1,63,63,20,1288.534695,1288.534695,1288.876561,1288.875038,"d",2.988370208,"NF01","Female",22,"2023-02-08_11h34.35.902","id","2022.2.3","None",4
"290",4,4,"sound/khal_filler.wav","image1/khal_filler.png","image2/tal_filler.png",1,64,64,73,1292.066757,1292.066757,1292.375512,1292.376846,"d",2.971528709,"NF01","Female",22,"2023-02-08_11h34.35.902","id","2022.2.3","None",4
"291",4,4,"sound/kan_shape_step4.wav","image1/kan_taste.png","image2/kan_liver.png",1,65,65,18,1295.548927,1295.548927,1295.860173,1295.859993,"d",2.969151,"NF01","Female",22,"2023-02-08_11h34.35.902","id","2022.2.3","None",4
"292",4,4,"sound/pal_peak_step5.wav","image1/pal_foot.png","image2/pal_shade.png",1,66,66,14,1298.996149,1298.996149,1299.358735,1299.36018,"k",2.816860834,"NF01","Female",22,"2023-02-08_11h34.35.902","id","2022.2.3","None",4
"293",4,4,"sound/kam_filler.wav","image1/kam_filler.png","image2/kan_LH_filler.png",2,67,67,47,1302.354766,1302.354766,1302.693248,1302.691849,"d",2.969081375,"NF01","Female",22,"2023-02-08_11h34.35.902","id","2022.2.3","None",4
"294",4,4,"sound/tam_filler.wav","image1/tam_filler.png","image2/nam_filler.png",1,68,68,67,1305.839534,1305.839534,1306.176698,1306.175245,"d",2.79571925,"NF01","Female",22,"2023-02-08_11h34.35.902","id","2022.2.3","None",4
"295",4,4,"sound/tam_filler.wav","image1/tam_filler.png","image2/nam_filler.png",1,69,69,62,1309.131027,1309.131027,1309.475025,1309.475079,"d",2.94668475,"NF01","Female",22,"2023-02-08_11h34.35.902","id","2022.2.3","None",4
"296",4,4,"sound/kan_shape_step2.wav","image1/kan_taste.png","image2/kan_liver.png",1,70,70,16,1312.615684,1312.615684,1312.943345,1312.94181,"d",2.977969084,"NF01","Female",22,"2023-02-08_11h34.35.902","id","2022.2.3","None",4
"297",4,4,"sound/pal_shape_step1.wav","image1/pal_foot.png","image2/pal_shade.png",1,71,71,25,1316.077967,1316.077967,1316.441875,1316.443495,"d",4.631155167,"NF01","Female",22,"2023-02-08_11h34.35.902","id","2022.2.3","None",4
"298",4,4,"sound/pan_filler.wav","image1/pan_filler.png","image2/pang_filler.png",1,72,72,65,1321.23191,1321.23191,1321.575273,1321.575483,"d",3.108094167,"NF01","Female",22,"2023-02-08_11h34.35.902","id","2022.2.3","None",4
"299",4,4,"sound/pal_peak_step4.wav","image1/pal_foot.png","image2/pal_shade.png",1,73,73,13,1324.847778,1324.847778,1325.208578,1325.210064,"k",3.018446084,"NF01","Female",22,"2023-02-08_11h34.35.902","id","2022.2.3","None",4
"300",4,4,"sound/kan_H_filler.wav","image1/kan_H_filler.png","image2/tan_filler.png",1,74,74,36,1328.436508,1328.436508,1328.741862,1328.743335,"d",2.620102625,"NF01","Female",22,"2023-02-08_11h34.35.902","id","2022.2.3","None",4
"301",1,1,"sound/pam_H_filler.wav","image1/pam_H_filler.png","image2/nam_filler.png",1,0,0,38,132.8943281,132.8943281,133.224621,133.2246767,"d",4.513094958,"NF02","Female",25,"2023-02-07_14h42.36.892","id","2022.2.3","59.94890867",1
"302",1,1,"sound/tan_filler.wav","image1/tan_filler.png","image2/nan_filler.png",1,1,1,61,137.9319077,137.9319077,138.2579544,138.257943,"d",4.872329042,"NF02","Female",25,"2023-02-07_14h42.36.892","id","2022.2.3","59.94890867",1
"303",1,1,"sound/tan_filler.wav","image1/tan_filler.png","image2/nan_filler.png",1,2,2,71,143.3193404,143.3193404,143.64147,143.6414618,"d",3.474788291,"NF02","Female",25,"2023-02-07_14h42.36.892","id","2022.2.3","59.94890867",1
"304",1,1,"sound/tam_filler.wav","image1/tam_filler.png","image2/nam_filler.png",1,3,3,72,147.2822537,147.2822537,147.6248837,147.6248626,"d",2.975340458,"NF02","Female",25,"2023-02-07_14h42.36.892","id","2022.2.3","59.94890867",1
"305",1,1,"sound/tal_filler.wav","image1/tal_filler.png","image2/khal_filler.png",1,4,4,46,150.7892566,150.7892566,151.1080291,151.1080043,"d",2.919035833,"NF02","Female",25,"2023-02-07_14h42.36.892","id","2022.2.3","59.94890867",1
"306",1,1,"sound/kan_LH_filler.wav","image1/kan_LH_filler.png","image2/kang_filler.png",1,5,5,31,154.2221717,154.2221717,154.5575231,154.5580945,"d",2.963879583,"NF02","Female",25,"2023-02-07_14h42.36.892","id","2022.2.3","59.94890867",1
"307",1,1,"sound/pam_LH_filler.wav","image1/pam_LH_filler.png","image2/tam_filler.png",1,6,6,39,157.6983286,157.6983286,158.0247974,158.0247537,"d",2.3971205,"NF02","Female",25,"2023-02-07_14h42.36.892","id","2022.2.3","59.94890867",1
"308",1,1,"sound/kan_peak_step4.wav","image1/kan_taste.png","image2/kan_liver.png",1,7,7,3,160.6166652,160.6166652,160.9410409,160.9407925,"k",2.707036792,"NF02","Female",25,"2023-02-07_14h42.36.892","id","2022.2.3","59.94890867",1
"309",1,1,"sound/tan_filler.wav","image1/tan_filler.png","image2/kan_LH_filler.png",2,8,8,53,163.8353188,163.8353188,164.1581246,164.1580815,"d",3.251572541,"NF02","Female",25,"2023-02-07_14h42.36.892","id","2022.2.3","59.94890867",1
"310",1,1,"sound/pam_peak_step1.wav","image1/pam_night.png","image2/pam_chestnut.png",1,9,9,5,167.5948656,167.5948656,167.9248607,167.9249102,"k",2.656712625,"NF02","Female",25,"2023-02-07_14h42.36.892","id","2022.2.3","59.94890867",1
"311",1,1,"sound/kam_filler.wav","image1/kam_filler.png","image2/kan_LH_filler.png",2,10,10,47,170.7550212,170.7550212,171.0914831,171.0915303,"d",2.983864875,"NF02","Female",25,"2023-02-07_14h42.36.892","id","2022.2.3","59.94890867",1
"312",1,1,"sound/pal_H_filler.wav","image1/pal_H_filler.png","image2/pan_filler.png",1,11,11,34,174.2558654,174.2558654,174.6082504,174.6083303,"d",2.981049917,"NF02","Female",25,"2023-02-07_14h42.36.892","id","2022.2.3","59.94890867",1
"313",1,1,"sound/pal_peak_step3.wav","image1/pal_foot.png","image2/pal_shade.png",1,12,12,12,177.7451996,177.7451996,178.0915294,178.0914738,"k",3.012830542,"NF02","Female",25,"2023-02-07_14h42.36.892","id","2022.2.3","59.94890867",1
"314",1,1,"sound/tan_filler.wav","image1/tan_filler.png","image2/nan_filler.png",1,13,13,66,181.2969057,181.2969057,181.6248665,181.6249057,"d",3.316215624,"NF02","Female",25,"2023-02-07_14h42.36.892","id","2022.2.3","59.94890867",1
"315",1,1,"sound/nam_filler.wav","image1/nam_filler.png","image2/tam_filler.png",1,14,14,45,185.1004396,185.1004396,185.4415729,185.4416813,"d",3.805251333,"NF02","Female",25,"2023-02-07_14h42.36.892","id","2022.2.3","59.94890867",1
"316",1,1,"sound/kan_H_filler.wav","image1/kan_H_filler.png","image2/tan_filler.png",1,15,15,36,189.452222,189.452222,189.773955,189.7749584,"d",3.181927542,"NF02","Female",25,"2023-02-07_14h42.36.892","id","2022.2.3","59.94890867",1
"317",1,1,"sound/pan_filler.wav","image1/pan_filler.png","image2/pang_filler.png",1,16,16,70,193.1102095,193.1102095,193.4583954,193.4582924,"d",3.580523,"NF02","Female",25,"2023-02-07_14h42.36.892","id","2022.2.3","59.94890867",1
"318",1,1,"sound/pam_LH_filler.wav","image1/pam_LH_filler.png","image2/pang_filler.png",1,17,17,33,197.1944327,197.1944327,197.5416787,197.5418138,"d",3.5188335,"NF02","Female",25,"2023-02-07_14h42.36.892","id","2022.2.3","59.94890867",1
"319",1,1,"sound/pam_peak_step5.wav","image1/pam_night.png","image2/pam_chestnut.png",1,18,18,9,201.2447662,201.2447662,201.5916709,201.5916685,"k",3.029969,"NF02","Female",25,"2023-02-07_14h42.36.892","id","2022.2.3","59.94890867",1
"320",1,1,"sound/kan_peak_step3.wav","image1/kan_taste.png","image2/kan_liver.png",1,19,19,2,204.8150565,204.8150565,205.1416129,205.1417476,"k",2.811845624,"NF02","Female",25,"2023-02-07_14h42.36.892","id","2022.2.3","59.94890867",1
"321",1,1,"sound/tal_filler.wav","image1/tal_filler.png","image2/pal_LH_filler.png",1,20,20,74,208.1535861,208.1535861,208.4741864,208.4750972,"d",2.917250999,"NF02","Female",25,"2023-02-07_14h42.36.892","id","2022.2.3","59.94890867",1
"322",1,1,"sound/pal_shape_step5.wav","image1/pal_foot.png","image2/pal_shade.png",1,21,21,29,211.5607268,211.5607268,211.9245894,211.9247908,"d",2.942565666,"NF02","Female",25,"2023-02-07_14h42.36.892","id","2022.2.3","59.94890867",1
"323",1,1,"sound/pal_LH_filler.wav","image1/pal_LH_filler.png","image2/tal_filler.png",1,22,22,41,215.0705502,215.0705502,215.3910467,215.3919069,"d",2.981287499,"NF02","Female",25,"2023-02-07_14h42.36.892","id","2022.2.3","59.94890867",1
"324",1,1,"sound/pal_peak_step4.wav","image1/pal_foot.png","image2/pal_shade.png",1,23,23,13,218.5358676,218.5358676,218.8910996,218.8918244,"k",3.202196667,"NF02","Female",25,"2023-02-07_14h42.36.892","id","2022.2.3","59.94890867",1
"325",1,1,"sound/pam_shape_step4.wav","image1/pam_night.png","image2/pam_chestnut.png",1,24,24,23,222.2802029,222.2802029,222.6246088,222.6251254,"d",3.005846166,"NF02","Female",25,"2023-02-07_14h42.36.892","id","2022.2.3","59.94890867",1
"326",1,1,"sound/nam_filler.wav","image1/nam_filler.png","image2/pam_LH_filler.png",2,25,25,55,225.8008967,225.8008967,226.1417734,226.1419359,"d",3.01695175,"NF02","Female",25,"2023-02-07_14h42.36.892","id","2022.2.3","59.94890867",1
"327",1,1,"sound/pam_H_filler.wav","image1/pam_H_filler.png","image2/pan_filler.png",1,26,26,32,229.3442637,229.3442637,229.6915668,229.6914653,"d",3.136412083,"NF02","Female",25,"2023-02-07_14h42.36.892","id","2022.2.3","59.94890867",1
"328",1,1,"sound/kan_H_filler.wav","image1/kan_H_filler.png","image2/kam_filler.png",1,27,27,30,233.0187187,233.0187187,233.3580181,233.3586888,"d",2.934996208,"NF02","Female",25,"2023-02-07_14h42.36.892","id","2022.2.3","59.94890867",1
"329",1,1,"sound/pam_shape_step1.wav","image1/pam_night.png","image2/pam_chestnut.png",1,28,28,20,236.4773022,236.4773022,236.8250138,236.8250378,"k",5.284104791,"NF02","Female",25,"2023-02-07_14h42.36.892","id","2022.2.3","59.94890867",1
"330",1,1,"sound/pal_shape_step1.wav","image1/pal_foot.png","image2/pal_shade.png",1,29,29,25,242.2821707,242.2821707,242.6418202,242.6417745,"k",2.879369125,"NF02","Female",25,"2023-02-07_14h42.36.892","id","2022.2.3","59.94890867",1
"331",1,1,"sound/pan_filler.wav","image1/pan_filler.png","image2/pang_filler.png",2,30,30,60,245.6836681,245.6836681,246.0416961,246.0418393,"d",2.901187666,"NF02","Female",25,"2023-02-07_14h42.36.892","id","2022.2.3","59.94890867",1
"332",1,1,"sound/tam_filler.wav","image1/tam_filler.png","image2/nam_filler.png",1,31,31,67,249.1165103,249.1165103,249.4747822,249.4749695,"d",3.092020249,"NF02","Female",25,"2023-02-07_14h42.36.892","id","2022.2.3","59.94890867",1
"333",1,1,"sound/kam_filler.wav","image1/kam_filler.png","image2/kang_filler.png",1,32,32,64,252.7374056,252.7374056,253.0917174,253.0920081,"d",3.2367315,"NF02","Female",25,"2023-02-07_14h42.36.892","id","2022.2.3","59.94890867",1
"334",1,1,"sound/kan_LH_filler.wav","image1/kan_LH_filler.png","image2/nan_filler.png",1,33,33,37,256.5175589,256.5175589,256.8584722,256.8586519,"d",3.21309825,"NF02","Female",25,"2023-02-07_14h42.36.892","id","2022.2.3","59.94890867",1
"335",1,1,"sound/pal_shape_step3.wav","image1/pal_foot.png","image2/pal_shade.png",1,34,34,27,260.2286253,260.2286253,260.5751302,260.575195,"d",3.145459416,"NF02","Female",25,"2023-02-07_14h42.36.892","id","2022.2.3","59.94890867",1
"336",1,1,"sound/kan_shape_step5.wav","image1/kan_taste.png","image2/kan_liver.png",1,35,35,19,263.9102557,263.9102557,264.2415491,264.242062,"d",2.861557124,"NF02","Female",25,"2023-02-07_14h42.36.892","id","2022.2.3","59.94890867",1
"337",1,1,"sound/tal_filler.wav","image1/tal_filler.png","image2/pal_H_filler.png",2,36,36,58,267.2977532,267.2977532,267.6248671,267.6253094,"d",2.827111792,"NF02","Female",25,"2023-02-07_14h42.36.892","id","2022.2.3","59.94890867",1
"338",1,1,"sound/pan_filler.wav","image1/pan_filler.png","image2/pal_LH_filler.png",2,37,37,51,270.616376,270.616376,270.975369,270.975369,"d",2.897025125,"NF02","Female",25,"2023-02-07_14h42.36.892","id","2022.2.3","59.94890867",1
"339",1,1,"sound/kang_filler.wav","image1/kang_filler.png","image2/kan_H_filler.png",2,38,38,48,274.0709693,274.0709693,274.3910863,274.3922195,"d",2.937030375,"NF02","Female",25,"2023-02-07_14h42.36.892","id","2022.2.3","59.94890867",1
"340",1,1,"sound/pal_LH_filler.wav","image1/pal_LH_filler.png","image2/pang_filler.png",1,39,39,35,277.493555,277.493555,277.8419949,277.8421587,"d",2.982971916,"NF02","Female",25,"2023-02-07_14h42.36.892","id","2022.2.3","59.94890867",1
"341",1,1,"sound/khal_filler.wav","image1/khal_filler.png","image2/tal_filler.png",1,40,40,68,281.0133201,281.0133201,281.3252393,281.3253386,"d",3.065752125,"NF02","Female",25,"2023-02-07_14h42.36.892","id","2022.2.3","59.94890867",1
"342",1,1,"sound/kan_shape_step4.wav","image1/kan_taste.png","image2/kan_liver.png",1,41,41,18,284.5797918,284.5797918,284.9081185,284.9084593,"d",4.702360125,"NF02","Female",25,"2023-02-07_14h42.36.892","id","2022.2.3","59.94890867",1
"343",1,1,"sound/tam_filler.wav","image1/tam_filler.png","image2/nam_filler.png",1,42,42,62,289.7901993,289.7901993,290.1413638,290.1419859,"d",3.092740083,"NF02","Female",25,"2023-02-07_14h42.36.892","id","2022.2.3","59.94890867",1
"344",1,1,"sound/kan_shape_step3.wav","image1/kan_taste.png","image2/kan_liver.png",1,43,43,17,293.4288452,293.4288452,293.7420402,293.7421518,"k",3.828050499,"NF02","Female",25,"2023-02-07_14h42.36.892","id","2022.2.3","59.94890867",1
"345",1,1,"sound/pang_filler.wav","image1/pang_filler.png","image2/pal_H_filler.png",2,44,44,52,297.7227679,297.7227679,298.0920404,298.0920656,"d",2.927130749,"NF02","Female",25,"2023-02-07_14h42.36.892","id","2022.2.3","59.94890867",1
"346",1,1,"sound/pam_peak_step4.wav","image1/pam_night.png","image2/pam_chestnut.png",1,45,45,8,301.1928945,301.1928945,301.5415541,301.5422222,"k",2.741891792,"NF02","Female",25,"2023-02-07_14h42.36.892","id","2022.2.3","59.94890867",1
"347",1,1,"sound/kan_shape_step2.wav","image1/kan_taste.png","image2/kan_liver.png",1,46,46,16,304.4816448,304.4816448,304.8082322,304.8081658,"k",2.620850875,"NF02","Female",25,"2023-02-07_14h42.36.892","id","2022.2.3","59.94890867",1
"348",1,1,"sound/kan_peak_step2.wav","image1/kan_taste.png","image2/kan_liver.png",1,47,47,1,307.6207488,307.6207488,307.9589532,307.9588611,"k",2.431010708,"NF02","Female",25,"2023-02-07_14h42.36.892","id","2022.2.3","59.94890867",1
"349",1,1,"sound/pam_peak_step3.wav","image1/pam_night.png","image2/pam_chestnut.png",1,48,48,7,310.5594029,310.5594029,310.9087585,310.9089399,"k",2.577794875,"NF02","Female",25,"2023-02-07_14h42.36.892","id","2022.2.3","59.94890867",1
"350",1,1,"sound/pan_filler.wav","image1/pan_filler.png","image2/pang_filler.png",1,49,49,65,313.6463527,313.6463527,313.9923258,313.992272,"d",2.889446166,"NF02","Female",25,"2023-02-07_14h42.36.892","id","2022.2.3","59.94890867",1
"351",1,1,"sound/pal_peak_step1.wav","image1/pal_foot.png","image2/pal_shade.png",1,50,50,10,317.0502456,317.0502456,317.4087908,317.4087728,"k",3.04488175,"NF02","Female",25,"2023-02-07_14h42.36.892","id","2022.2.3","59.94890867",1
"352",1,1,"sound/kam_filler.wav","image1/kam_filler.png","image2/kang_filler.png",2,51,51,59,320.6294907,320.6294907,320.9749311,320.9755673,"k",3.642091541,"NF02","Female",25,"2023-02-07_14h42.36.892","id","2022.2.3","59.94890867",1
"353",1,1,"sound/khal_filler.wav","image1/khal_filler.png","image2/tal_filler.png",1,52,52,73,324.8052951,324.8052951,325.1254389,325.1256945,"d",3.002776625,"NF02","Female",25,"2023-02-07_14h42.36.892","id","2022.2.3","59.94890867",1
"354",1,1,"sound/nan_filler.wav","image1/nan_filler.png","image2/tan_filler.png",1,53,53,44,328.3256193,328.3256193,328.6580466,328.6589513,"d",2.936334541,"NF02","Female",25,"2023-02-07_14h42.36.892","id","2022.2.3","59.94890867",1
"355",1,1,"sound/pal_H_filler.wav","image1/pal_H_filler.png","image2/khal_filler.png",1,54,54,40,331.7598535,331.7598535,332.1089204,332.1088511,"d",2.978424292,"NF02","Female",25,"2023-02-07_14h42.36.892","id","2022.2.3","59.94890867",1
"356",1,1,"sound/pan_filler.wav","image1/pan_filler.png","image2/pam_LH_filler.png",2,55,55,49,335.2628853,335.2628853,335.6089203,335.6089512,"d",2.545313666,"NF02","Female",25,"2023-02-07_14h42.36.892","id","2022.2.3","59.94890867",1
"357",1,1,"sound/pal_shape_step2.wav","image1/pal_foot.png","image2/pal_shade.png",1,56,56,26,338.3170185,338.3170185,338.6756015,338.6755346,"k",2.732544958,"NF02","Female",25,"2023-02-07_14h42.36.892","id","2022.2.3","59.94890867",1
"358",1,1,"sound/pam_peak_step2.wav","image1/pam_night.png","image2/pam_chestnut.png",1,57,57,6,341.5772059,341.5772059,341.9087432,341.9089379,"k",2.558086416,"NF02","Female",25,"2023-02-07_14h42.36.892","id","2022.2.3","59.94890867",1
"359",1,1,"sound/pam_shape_step2.wav","image1/pam_night.png","image2/pam_chestnut.png",1,58,58,21,344.635639,344.635639,344.9923577,344.9924452,"k",2.346394792,"NF02","Female",25,"2023-02-07_14h42.36.892","id","2022.2.3","59.94890867",1
"360",1,1,"sound/kan_shape_step1.wav","image1/kan_taste.png","image2/kan_liver.png",1,59,59,15,347.5315546,347.5315546,347.8578673,347.8581237,"k",2.532688833,"NF02","Female",25,"2023-02-07_14h42.36.892","id","2022.2.3","59.94890867",1
"361",1,1,"sound/pal_shape_step4.wav","image1/pal_foot.png","image2/pal_shade.png",1,60,60,28,350.5463438,350.5463438,350.9090397,350.9090226,"d",2.97665725,"NF02","Female",25,"2023-02-07_14h42.36.892","id","2022.2.3","59.94890867",1
"362",1,1,"sound/pam_shape_step3.wav","image1/pam_night.png","image2/pam_chestnut.png",1,61,61,22,354.0595744,354.0595744,354.3923552,354.3923458,"d",3.360368458,"NF02","Female",25,"2023-02-07_14h42.36.892","id","2022.2.3","59.94890867",1
"363",1,1,"sound/kan_peak_step5.wav","image1/kan_taste.png","image2/kan_liver.png",1,62,62,4,357.9480513,357.9480513,358.2748915,358.275103,"k",2.472434416,"NF02","Female",25,"2023-02-07_14h42.36.892","id","2022.2.3","59.94890867",1
"364",1,1,"sound/pang_filler.wav","image1/pang_filler.png","image2/pam_H_filler.png",2,63,63,50,360.9162731,360.9162731,361.2752924,361.2757328,"d",2.592778708,"NF02","Female",25,"2023-02-07_14h42.36.892","id","2022.2.3","59.94890867",1
"365",1,1,"sound/kang_filler.wav","image1/kang_filler.png","image2/kam_filler.png",1,64,64,42,364.0422218,364.0422218,364.3755404,364.3758046,"d",2.614591041,"NF02","Female",25,"2023-02-07_14h42.36.892","id","2022.2.3","59.94890867",1
"366",1,1,"sound/khal_filler.wav","image1/khal_filler.png","image2/tal_filler.png",1,65,65,63,367.169845,367.169845,367.5088435,367.5092206,"d",2.410115417,"NF02","Female",25,"2023-02-07_14h42.36.892","id","2022.2.3","59.94890867",1
"367",1,1,"sound/kam_filler.wav","image1/kam_filler.png","image2/kang_filler.png",1,66,66,69,370.084581,370.084581,370.4258563,370.4258124,"d",3.101384749,"NF02","Female",25,"2023-02-07_14h42.36.892","id","2022.2.3","59.94890867",1
"368",1,1,"sound/kan_peak_step1.wav","image1/kan_taste.png","image2/kan_liver.png",1,67,67,0,373.7301401,373.7301401,374.0589706,374.0589604,"k",2.765042583,"NF02","Female",25,"2023-02-07_14h42.36.892","id","2022.2.3","59.94890867",1
"369",1,1,"sound/nan_filler.wav","image1/nan_filler.png","image2/kan_H_filler.png",2,68,68,54,377.017565,377.017565,377.3423835,377.3423118,"d",2.537689166,"NF02","Female",25,"2023-02-07_14h42.36.892","id","2022.2.3","59.94890867",1
"370",1,1,"sound/pal_peak_step2.wav","image1/pal_foot.png","image2/pal_shade.png",1,69,69,11,380.0513753,380.0513753,380.4085832,380.4092664,"k",2.466657583,"NF02","Female",25,"2023-02-07_14h42.36.892","id","2022.2.3","59.94890867",1
"371",1,1,"sound/pam_shape_step5.wav","image1/pam_night.png","image2/pam_chestnut.png",1,70,70,24,383.0462546,383.0462546,383.3757287,383.3757673,"d",2.583939041,"NF02","Female",25,"2023-02-07_14h42.36.892","id","2022.2.3","59.94890867",1
"372",1,1,"sound/tam_filler.wav","image1/tam_filler.png","image2/pam_H_filler.png",2,71,71,56,386.1503696,386.1503696,386.4924232,386.4926284,"d",2.771212124,"NF02","Female",25,"2023-02-07_14h42.36.892","id","2022.2.3","59.94890867",1
"373",1,1,"sound/pal_peak_step5.wav","image1/pal_foot.png","image2/pal_shade.png",1,72,72,14,389.4279563,389.4279563,389.7924765,389.7925487,"k",2.960206291,"NF02","Female",25,"2023-02-07_14h42.36.892","id","2022.2.3","59.94890867",1
"374",1,1,"sound/pang_filler.wav","image1/pang_filler.png","image2/pan_filler.png",1,73,73,43,392.9186952,392.9186952,393.2592257,393.2591325,"d",2.856411292,"NF02","Female",25,"2023-02-07_14h42.36.892","id","2022.2.3","59.94890867",1
"375",1,1,"sound/khal_filler.wav","image1/khal_filler.png","image2/pal_LH_filler.png",2,74,74,57,396.2759708,396.2759708,396.6257276,396.6258136,"d",2.64862725,"NF02","Female",25,"2023-02-07_14h42.36.892","id","2022.2.3","59.94890867",1
"376",2,2,"sound/pal_LH_filler.wav","image1/pal_LH_filler.png","image2/tal_filler.png",1,0,0,41,429.4779831,429.4779831,429.7919411,429.7926195,"d",2.814616916,"NF02","Female",25,"2023-02-07_14h42.36.892","id","2022.2.3","59.94890867",2
"377",2,2,"sound/tam_filler.wav","image1/tam_filler.png","image2/nam_filler.png",1,1,1,62,432.7751176,432.7751176,433.1094115,433.1094277,"d",2.437861708,"NF02","Female",25,"2023-02-07_14h42.36.892","id","2022.2.3","59.94890867",2
"378",2,2,"sound/pam_shape_step1.wav","image1/pam_night.png","image2/pam_chestnut.png",1,2,2,20,435.7302782,435.7302782,436.0760718,436.0760806,"k",2.905098875,"NF02","Female",25,"2023-02-07_14h42.36.892","id","2022.2.3","59.94890867",2
"379",2,2,"sound/pal_peak_step4.wav","image1/pal_foot.png","image2/pal_shade.png",1,3,3,13,439.1517012,439.1517012,439.4926751,439.4927713,"d",2.702147541,"NF02","Female",25,"2023-02-07_14h42.36.892","id","2022.2.3","59.94890867",2
"380",2,2,"sound/kam_filler.wav","image1/kam_filler.png","image2/kang_filler.png",2,4,4,59,442.3807543,442.3807543,442.7260001,442.7261368,"k",4.849128041,"NF02","Female",25,"2023-02-07_14h42.36.892","id","2022.2.3","59.94890867",2
"381",2,2,"sound/kan_peak_step1.wav","image1/kan_taste.png","image2/kan_liver.png",1,5,5,0,447.7664396,447.7664396,448.0927433,448.0928186,"k",2.649415917,"NF02","Female",25,"2023-02-07_14h42.36.892","id","2022.2.3","59.94890867",2
"382",2,2,"sound/tan_filler.wav","image1/tan_filler.png","image2/nan_filler.png",1,6,6,61,450.9345847,450.9345847,451.2594453,451.2594501,"d",3.065908333,"NF02","Female",25,"2023-02-07_14h42.36.892","id","2022.2.3","59.94890867",2
"383",2,2,"sound/tan_filler.wav","image1/tan_filler.png","image2/kan_LH_filler.png",2,7,7,53,454.5015458,454.5015458,454.8261339,454.8261653,"d",2.498823541,"NF02","Female",25,"2023-02-07_14h42.36.892","id","2022.2.3","59.94890867",2
"384",2,2,"sound/pan_filler.wav","image1/pan_filler.png","image2/pam_LH_filler.png",2,8,8,49,457.4930607,457.4930607,457.8428835,457.8427994,"d",2.428297833,"NF02","Female",25,"2023-02-07_14h42.36.892","id","2022.2.3","59.94890867",2
"385",2,2,"sound/pang_filler.wav","image1/pang_filler.png","image2/pam_H_filler.png",2,9,9,50,460.4288535,460.4288535,460.7761609,460.7762267,"d",2.618569083,"NF02","Female",25,"2023-02-07_14h42.36.892","id","2022.2.3","59.94890867",2
"386",2,2,"sound/pam_LH_filler.wav","image1/pam_LH_filler.png","image2/tam_filler.png",1,10,10,39,463.5876072,463.5876072,463.9252358,463.9256485,"d",3.684869583,"NF02","Female",25,"2023-02-07_14h42.36.892","id","2022.2.3","59.94890867",2
"387",2,2,"sound/kan_shape_step4.wav","image1/kan_taste.png","image2/kan_liver.png",1,11,11,18,467.814635,467.814635,468.1425796,468.1426703,"d",2.897879,"NF02","Female",25,"2023-02-07_14h42.36.892","id","2022.2.3","59.94890867",2
"388",2,2,"sound/pang_filler.wav","image1/pang_filler.png","image2/pan_filler.png",1,12,12,43,471.1995301,471.1995301,471.5428731,471.5428064,"d",2.802553124,"NF02","Female",25,"2023-02-07_14h42.36.892","id","2022.2.3","59.94890867",2
"389",2,2,"sound/pal_peak_step2.wav","image1/pal_foot.png","image2/pal_shade.png",1,13,13,11,474.5193622,474.5193622,474.8761238,474.8763687,"k",2.984940875,"NF02","Female",25,"2023-02-07_14h42.36.892","id","2022.2.3","59.94890867",2
"390",2,2,"sound/khal_filler.wav","image1/khal_filler.png","image2/tal_filler.png",1,14,14,63,478.0678551,478.0678551,478.3923237,478.3919712,"d",2.366277333,"NF02","Female",25,"2023-02-07_14h42.36.892","id","2022.2.3","59.94890867",2
"391",2,2,"sound/pam_peak_step3.wav","image1/pam_night.png","image2/pam_chestnut.png",1,15,15,7,480.9277743,480.9277743,481.2758687,481.2763293,"k",2.496884916,"NF02","Female",25,"2023-02-07_14h42.36.892","id","2022.2.3","59.94890867",2
"392",2,2,"sound/kang_filler.wav","image1/kang_filler.png","image2/kam_filler.png",1,16,16,42,483.9477703,483.9477703,484.2929382,484.2930066,"d",2.619039,"NF02","Female",25,"2023-02-07_14h42.36.892","id","2022.2.3","59.94890867",2
"393",2,2,"sound/nam_filler.wav","image1/nam_filler.png","image2/tam_filler.png",1,17,17,45,487.0871418,487.0871418,487.4263289,487.4262733,"d",2.418640916,"NF02","Female",25,"2023-02-07_14h42.36.892","id","2022.2.3","59.94890867",2
"394",2,2,"sound/kan_LH_filler.wav","image1/kan_LH_filler.png","image2/nan_filler.png",1,18,18,37,490.0364704,490.0364704,490.3762932,490.3763232,"d",2.507644874,"NF02","Female",25,"2023-02-07_14h42.36.892","id","2022.2.3","59.94890867",2
"395",2,2,"sound/pal_shape_step4.wav","image1/pal_foot.png","image2/pal_shade.png",1,19,19,28,493.0455402,493.0455402,493.4096009,493.4098982,"d",2.700897208,"NF02","Female",25,"2023-02-07_14h42.36.892","id","2022.2.3","59.94890867",2
"396",2,2,"sound/kan_peak_step2.wav","image1/kan_taste.png","image2/kan_liver.png",1,20,20,1,496.3126292,496.3126292,496.6429911,496.6428135,"k",2.564909333,"NF02","Female",25,"2023-02-07_14h42.36.892","id","2022.2.3","59.94890867",2
"397",2,2,"sound/pal_H_filler.wav","image1/pal_H_filler.png","image2/khal_filler.png",1,21,21,40,499.3606495,499.3606495,499.7094715,499.7093421,"d",2.897322458,"NF02","Female",25,"2023-02-07_14h42.36.892","id","2022.2.3","59.94890867",2
"398",2,2,"sound/pan_filler.wav","image1/pan_filler.png","image2/pang_filler.png",1,22,22,65,502.76341,502.76341,503.1091635,503.1096079,"d",2.962942541,"NF02","Female",25,"2023-02-07_14h42.36.892","id","2022.2.3","59.94890867",2
"399",2,2,"sound/kan_shape_step2.wav","image1/kan_taste.png","image2/kan_liver.png",1,23,23,16,506.2662113,506.2662113,506.5923963,506.5929092,"k",3.337523083,"NF02","Female",25,"2023-02-07_14h42.36.892","id","2022.2.3","59.94890867",2
"400",2,2,"sound/kan_shape_step5.wav","image1/kan_taste.png","image2/kan_liver.png",1,24,24,19,510.1238395,510.1238395,510.4595567,510.4596291,"d",2.77876025,"NF02","Female",25,"2023-02-07_14h42.36.892","id","2022.2.3","59.94890867",2
"401",2,2,"sound/pan_filler.wav","image1/pan_filler.png","image2/pang_filler.png",1,25,25,70,513.3982741,513.3982741,513.7593812,513.7594911,"d",2.680797542,"NF02","Female",25,"2023-02-07_14h42.36.892","id","2022.2.3","59.94890867",2
"402",2,2,"sound/pang_filler.wav","image1/pang_filler.png","image2/pal_H_filler.png",2,26,26,52,516.5894532,516.5894532,516.9429449,516.9430035,"d",2.696299541,"NF02","Female",25,"2023-02-07_14h42.36.892","id","2022.2.3","59.94890867",2
"403",2,2,"sound/tan_filler.wav","image1/tan_filler.png","image2/nan_filler.png",1,27,27,71,519.8280623,519.8280623,520.15919,520.1597266,"d",3.2333315,"NF02","Female",25,"2023-02-07_14h42.36.892","id","2022.2.3","59.94890867",2
"404",2,2,"sound/kan_shape_step1.wav","image1/kan_taste.png","image2/kan_liver.png",1,28,28,15,523.5823475,523.5823475,523.9088837,523.9096581,"k",2.809386166,"NF02","Female",25,"2023-02-07_14h42.36.892","id","2022.2.3","59.94890867",2
"405",2,2,"sound/kan_H_filler.wav","image1/kan_H_filler.png","image2/kam_filler.png",1,29,29,30,526.9071722,526.9071722,527.242451,527.243041,"d",2.592933083,"NF02","Female",25,"2023-02-07_14h42.36.892","id","2022.2.3","59.94890867",2
"406",2,2,"sound/tam_filler.wav","image1/tam_filler.png","image2/pam_H_filler.png",2,30,30,56,530.0182354,530.0182354,530.3430268,530.3431079,"d",2.661701333,"NF02","Female",25,"2023-02-07_14h42.36.892","id","2022.2.3","59.94890867",2
"407",2,2,"sound/pam_H_filler.wav","image1/pam_H_filler.png","image2/nam_filler.png",1,31,31,38,533.16754,533.16754,533.5097779,533.50967,"d",2.436008166,"NF02","Female",25,"2023-02-07_14h42.36.892","id","2022.2.3","59.94890867",2
"408",2,2,"sound/kan_peak_step4.wav","image1/kan_taste.png","image2/kan_liver.png",1,32,32,3,536.1505348,536.1505348,536.476125,536.4759455,"k",2.5896405,"NF02","Female",25,"2023-02-07_14h42.36.892","id","2022.2.3","59.94890867",2
"409",2,2,"sound/tal_filler.wav","image1/tal_filler.png","image2/khal_filler.png",1,33,33,46,539.2670873,539.2670873,539.5929878,539.5930727,"d",2.537424125,"NF02","Female",25,"2023-02-07_14h42.36.892","id","2022.2.3","59.94890867",2
"410",2,2,"sound/tan_filler.wav","image1/tan_filler.png","image2/nan_filler.png",1,34,34,66,542.3232175,542.3232175,542.6430854,542.6431797,"d",2.593314166,"NF02","Female",25,"2023-02-07_14h42.36.892","id","2022.2.3","59.94890867",2
"411",2,2,"sound/pal_H_filler.wav","image1/pal_H_filler.png","image2/pan_filler.png",1,35,35,34,545.403506,545.403506,545.7430722,545.7432708,"d",2.556206583,"NF02","Female",25,"2023-02-07_14h42.36.892","id","2022.2.3","59.94890867",2
"412",2,2,"sound/kan_LH_filler.wav","image1/kan_LH_filler.png","image2/kang_filler.png",1,36,36,31,548.4816625,548.4816625,548.8261589,548.8262366,"d",2.80614375,"NF02","Female",25,"2023-02-07_14h42.36.892","id","2022.2.3","59.94890867",2
"413",2,2,"sound/pam_peak_step2.wav","image1/pam_night.png","image2/pam_chestnut.png",1,37,37,6,551.8144092,551.8144092,552.143063,552.1431685,"k",2.757098625,"NF02","Female",25,"2023-02-07_14h42.36.892","id","2022.2.3","59.94890867",2
"414",2,2,"sound/pam_shape_step2.wav","image1/pam_night.png","image2/pam_chestnut.png",1,38,38,21,555.0694721,555.0694721,555.4096683,555.4099508,"d",3.417103625,"NF02","Female",25,"2023-02-07_14h42.36.892","id","2022.2.3","59.94890867",2
"415",2,2,"sound/khal_filler.wav","image1/khal_filler.png","image2/pal_LH_filler.png",2,39,39,57,558.9808781,558.9808781,559.3432286,559.3433524,"d",2.3826425,"NF02","Female",25,"2023-02-07_14h42.36.892","id","2022.2.3","59.94890867",2
"416",2,2,"sound/pal_shape_step1.wav","image1/pal_foot.png","image2/pal_shade.png",1,40,40,25,561.881029,561.881029,562.2265714,562.2264913,"k",2.517417625,"NF02","Female",25,"2023-02-07_14h42.36.892","id","2022.2.3","59.94890867",2
"417",2,2,"sound/pal_peak_step3.wav","image1/pal_foot.png","image2/pal_shade.png",1,41,41,12,564.9096388,564.9096388,565.2764694,565.2766197,"k",2.611262333,"NF02","Female",25,"2023-02-07_14h42.36.892","id","2022.2.3","59.94890867",2
"418",2,2,"sound/khal_filler.wav","image1/khal_filler.png","image2/tal_filler.png",1,42,42,68,568.0819549,568.0819549,568.3932787,568.3926699,"d",2.469132625,"NF02","Female",25,"2023-02-07_14h42.36.892","id","2022.2.3","59.94890867",2
"419",2,2,"sound/pal_shape_step5.wav","image1/pal_foot.png","image2/pal_shade.png",1,43,43,29,571.0333915,571.0333915,571.393212,571.393137,"d",2.609565583,"NF02","Female",25,"2023-02-07_14h42.36.892","id","2022.2.3","59.94890867",2
"420",2,2,"sound/kang_filler.wav","image1/kang_filler.png","image2/kan_H_filler.png",2,44,44,48,574.2100703,574.2100703,574.525627,574.5260168,"d",2.585604125,"NF02","Female",25,"2023-02-07_14h42.36.892","id","2022.2.3","59.94890867",2
"421",2,2,"sound/kan_peak_step3.wav","image1/kan_taste.png","image2/kan_liver.png",1,45,45,2,577.3093706,577.3093706,577.6432375,577.6433274,"k",2.582133416,"NF02","Female",25,"2023-02-07_14h42.36.892","id","2022.2.3","59.94890867",2
"422",2,2,"sound/nan_filler.wav","image1/nan_filler.png","image2/tan_filler.png",1,46,46,44,580.4165792,580.4165792,580.7433759,580.7433479,"d",2.543128916,"NF02","Female",25,"2023-02-07_14h42.36.892","id","2022.2.3","59.94890867",2
"423",2,2,"sound/khal_filler.wav","image1/khal_filler.png","image2/tal_filler.png",1,47,47,73,583.4722896,583.4722896,583.7932376,583.793353,"d",2.341040625,"NF02","Female",25,"2023-02-07_14h42.36.892","id","2022.2.3","59.94890867",2
"424",2,2,"sound/pal_LH_filler.wav","image1/pal_LH_filler.png","image2/pang_filler.png",1,48,48,35,586.2890788,586.2890788,586.6433211,586.6434045,"d",2.591805875,"NF02","Female",25,"2023-02-07_14h42.36.892","id","2022.2.3","59.94890867",2
"425",2,2,"sound/kam_filler.wav","image1/kam_filler.png","image2/kang_filler.png",1,49,49,69,589.4099302,589.4099302,589.7607027,589.7602203,"d",3.331900833,"NF02","Female",25,"2023-02-07_14h42.36.892","id","2022.2.3","59.94890867",2
"426",2,2,"sound/tam_filler.wav","image1/tam_filler.png","image2/nam_filler.png",1,50,50,72,593.2527824,593.2527824,593.5932761,593.5931923,"d",2.659894708,"NF02","Female",25,"2023-02-07_14h42.36.892","id","2022.2.3","59.94890867",2
"427",2,2,"sound/pam_peak_step1.wav","image1/pam_night.png","image2/pam_chestnut.png",1,51,51,5,596.42763,596.42763,596.7765939,596.7766381,"k",2.901216125,"NF02","Female",25,"2023-02-07_14h42.36.892","id","2022.2.3","59.94890867",2
"428",2,2,"sound/pan_filler.wav","image1/pan_filler.png","image2/pal_LH_filler.png",2,52,52,51,599.8591137,599.8591137,600.2100395,600.2099656,"d",2.591966624,"NF02","Female",25,"2023-02-07_14h42.36.892","id","2022.2.3","59.94890867",2
"429",2,2,"sound/kan_peak_step5.wav","image1/kan_taste.png","image2/kan_liver.png",1,53,53,4,603.0005637,603.0005637,603.3098468,603.3101101,"k",2.688588,"NF02","Female",25,"2023-02-07_14h42.36.892","id","2022.2.3","59.94890867",2
"430",2,2,"sound/pam_shape_step5.wav","image1/pam_night.png","image2/pam_chestnut.png",1,54,54,24,606.1780394,606.1780394,606.5100214,606.5100422,"d",2.666654166,"NF02","Female",25,"2023-02-07_14h42.36.892","id","2022.2.3","59.94890867",2
"431",2,2,"sound/pal_shape_step2.wav","image1/pal_foot.png","image2/pal_shade.png",1,55,55,26,609.3347687,609.3347687,609.6766539,609.676663,"k",3.204952749,"NF02","Female",25,"2023-02-07_14h42.36.892","id","2022.2.3","59.94890867",2
"432",2,2,"sound/kan_shape_step3.wav","image1/kan_taste.png","image2/kan_liver.png",1,56,56,17,613.0770292,613.0770292,613.4095213,613.4100815,"d",2.744359791,"NF02","Female",25,"2023-02-07_14h42.36.892","id","2022.2.3","59.94890867",2
"433",2,2,"sound/pal_peak_step1.wav","image1/pal_foot.png","image2/pal_shade.png",1,57,57,10,616.3133512,616.3133512,616.6601772,616.6600395,"k",2.736333166,"NF02","Female",25,"2023-02-07_14h42.36.892","id","2022.2.3","59.94890867",2
"434",2,2,"sound/nan_filler.wav","image1/nan_filler.png","image2/kan_H_filler.png",2,58,58,54,619.6071024,619.6071024,619.925903,619.926382,"d",2.806006583,"NF02","Female",25,"2023-02-07_14h42.36.892","id","2022.2.3","59.94890867",2
